sep=;
ACCELEROMETER X (m/s²);ACCELEROMETER Y (m/s²);ACCELEROMETER Z (m/s²);GRAVITY X (m/s²);GRAVITY Y (m/s²);GRAVITY Z (m/s²);LINEAR ACCELERATION X (m/s²);LINEAR ACCELERATION Y (m/s²);LINEAR ACCELERATION Z (m/s²);MAGNETIC FIELD X (μT);MAGNETIC FIELD Y (μT);MAGNETIC FIELD Z (μT);ORIENTATION X (°);ORIENTATION Y (°);ORIENTATION Z (°);PROXIMITY (i);SOUND LEVEL (dB);LOCATION Latitude : ;LOCATION Longitude : ;LOCATION Altitude ( m);LOCATION Speed ( Kmh);LOCATION Accuracy ( m);Temperature (F);Level (%);Voltage (Volt);Time since start in ms ;YYYY-MO-DD HH-MI-SS_SSS
2.1452;5.3629;7.9678;1.8086;5.1007;8.0032;0.3366;0.2622;-0.0354;11.0;-42.2;24.8;186.54;-32.94;-11.7;;26.733;;;;;;95.0;60.0;3.0;212;2014-11-08 13:54:53:585
0.6129;6.8952;6.742;1.2456;5.049;8.648;-0.6327;1.8462;-1.9061;24.6;-40.6;28.3;202.08;-30.02;-8.2;;25.221;;;;;;95.0;60.0;3.0;712;2014-11-08 13:54:54:085
-0.3065;7.5081;6.742;-0.0904;8.5531;6.415;-0.2161;-1.0449;0.327;22.2;-36.3;20.1;212.05;-49.79;4.04;;24.283;;;;;;95.0;60.0;3.0;1212;2014-11-08 13:54:54:585
1.992;4.9033;8.5807;0.9782;6.7375;6.3557;1.0138;-1.8342;2.2251;23.2;-28.3;15.4;212.11;-46.34;-8.75;;26.032;;;;;;95.0;60.0;3.0;1716;2014-11-08 13:54:55:089
0.9194;5.0565;8.7339;1.8485;4.8438;7.8318;-0.9291;0.2127;0.9021;27.7;-18.8;15.8;218.93;-30.73;-15.61;;32.624;;;;;;95.0;60.0;3.0;2232;2014-11-08 13:54:55:605
-1.0726;4.9033;7.8146;0.4619;5.0799;8.9589;-1.5345;-0.1766;-1.1444;26.1;-11.4;11.8;236.76;-28.86;-6.3;;23.676;;;;;;95.0;60.0;3.0;2741;2014-11-08 13:54:56:114
0.4597;6.5888;9.1936;-1.0709;5.0882;7.5086;1.5305;1.5006;1.685;17.3;-3.7;6.7;252.2;-33.63;8.71;;24.3;;;;;;95.0;60.0;3.0;3241;2014-11-08 13:54:56:614
0.6129;5.5162;7.2017;0.8121;4.7506;8.9198;-0.1992;0.7656;-1.7181;-4.8;-8.6;5.5;159.28;-33.24;-0.54;;24.337;;;;;;95.0;60.0;3.0;3742;2014-11-08 13:54:57:115
-0.4597;4.5968;7.0484;-0.5533;5.4823;8.4762;0.0936;-0.8855;-1.4278;-10.6;-6.3;11.2;135.49;-32.97;0.56;;23.408;;;;;;95.0;60.0;3.0;4243;2014-11-08 13:54:57:616
0.4597;5.0565;6.742;-0.5533;5.4823;8.4762;0.0936;-0.8855;-1.4278;-19.6;-6.7;18.6;132.02;-32.84;3.73;;24.598;;;;;;95.0;60.0;3.0;4744;2014-11-08 13:54:58:117
0.4597;5.0565;6.742;-0.5533;5.4823;8.4762;0.0936;-0.8855;-1.4278;-14.7;-5.6;10.8;128.96;-32.84;3.73;;25.914;;;;;;95.0;60.0;3.0;5245;2014-11-08 13:54:58:618
0.4597;5.0565;6.742;-0.5533;5.4823;8.4762;0.0936;-0.8855;-1.4278;1.1;-24.0;7.6;183.55;-32.84;3.73;;48.786;;;;;;95.0;60.0;3.0;5746;2014-11-08 13:54:59:119
0.4597;5.0565;6.742;-0.5533;5.4823;8.4762;0.0936;-0.8855;-1.4278;0.7;-35.5;12.2;182.84;-32.84;3.73;0.0;51.592;;;;;;95.0;60.0;3.0;6246;2014-11-08 13:54:59:619
0.4597;5.0565;6.742;-0.5533;5.4823;8.4762;0.0936;-0.8855;-1.4278;11.2;-41.1;24.5;203.8;-32.84;3.73;0.0;65.378;;;;;;95.0;60.0;3.0;6746;2014-11-08 13:55:00:119
0.4597;5.0565;6.742;-0.5533;5.4823;8.4762;0.0936;-0.8855;-1.4278;16.2;-39.7;26.4;200.55;-32.84;3.73;0.0;41.983;;;;;;95.0;60.0;3.0;7246;2014-11-08 13:55:00:619
0.4597;5.0565;6.742;-0.5533;5.4823;8.4762;0.0936;-0.8855;-1.4278;29.7;-32.1;26.8;218.09;-32.84;3.73;0.0;42.957;;;;;;95.0;60.0;3.0;7746;2014-11-08 13:55:01:119
0.4597;5.0565;6.742;-0.5533;5.4823;8.4762;0.0936;-0.8855;-1.4278;24.1;-40.4;39.7;204.2;-32.84;3.73;0.0;42.964;;;;;;95.0;60.0;3.0;8246;2014-11-08 13:55:01:619
0.4597;5.0565;6.742;-0.5533;5.4823;8.4762;0.0936;-0.8855;-1.4278;24.5;-38.4;56.0;204.99;-32.84;3.73;0.0;39.45;;;;;;95.0;60.0;3.0;8746;2014-11-08 13:55:02:119
0.4597;5.0565;6.742;-0.5533;5.4823;8.4762;0.0936;-0.8855;-1.4278;8.3;-26.0;76.8;193.83;-32.84;3.73;0.0;38.533;;;;;;95.0;60.0;3.0;9246;2014-11-08 13:55:02:619
0.4597;5.0565;6.742;-0.5533;5.4823;8.4762;0.0936;-0.8855;-1.4278;23.9;-31.5;70.3;204.32;-32.84;3.73;0.0;43.506;;;;;;95.0;60.0;3.0;9746;2014-11-08 13:55:03:119
0.4597;5.0565;6.742;-0.5533;5.4823;8.4762;0.0936;-0.8855;-1.4278;32.1;-21.6;18.6;213.89;-32.84;3.73;0.0;35.309;;;;;;95.0;60.0;3.0;10247;2014-11-08 13:55:03:620
0.4597;5.0565;6.742;-0.5533;5.4823;8.4762;0.0936;-0.8855;-1.4278;26.6;-37.3;-19.2;231.87;-32.84;3.73;0.0;38.965;;;;;;95.0;60.0;3.0;10747;2014-11-08 13:55:04:120
0.4597;5.0565;6.742;-0.5533;5.4823;8.4762;0.0936;-0.8855;-1.4278;26.4;-41.8;-11.9;222.07;-32.84;3.73;0.0;35.433;;;;;;95.0;60.0;3.0;11247;2014-11-08 13:55:04:620
0.4597;5.0565;6.742;-0.5533;5.4823;8.4762;0.0936;-0.8855;-1.4278;21.5;-44.3;-2.5;211.55;-32.84;3.73;0.0;40.122;;;;;;95.0;60.0;3.0;11747;2014-11-08 13:55:05:120
0.4597;5.0565;6.742;-0.5533;5.4823;8.4762;0.0936;-0.8855;-1.4278;25.7;-39.7;2.9;217.3;-32.84;3.73;0.0;34.144;;;;;;95.0;60.0;3.0;12247;2014-11-08 13:55:05:620
0.4597;5.0565;6.742;-0.5533;5.4823;8.4762;0.0936;-0.8855;-1.4278;18.4;-38.8;2.5;208.28;-32.84;3.73;0.0;41.538;;;;;;95.0;60.0;3.0;12748;2014-11-08 13:55:06:121
0.4597;5.0565;6.742;-0.5533;5.4823;8.4762;0.0936;-0.8855;-1.4278;21.0;-33.1;2.7;214.0;-32.84;3.73;0.0;33.375;;;;;;95.0;60.0;3.0;13248;2014-11-08 13:55:06:621
0.4597;5.0565;6.742;-0.5533;5.4823;8.4762;0.0936;-0.8855;-1.4278;19.0;-33.8;-0.1;214.2;-32.84;3.73;0.0;44.533;;;;;;95.0;60.0;3.0;13749;2014-11-08 13:55:07:122
0.4597;5.0565;6.742;-0.5533;5.4823;8.4762;0.0936;-0.8855;-1.4278;20.5;-31.1;1.5;218.63;-32.84;3.73;0.0;44.182;;;;;;95.0;60.0;3.0;14250;2014-11-08 13:55:07:623
0.4597;5.0565;6.742;-0.5533;5.4823;8.4762;0.0936;-0.8855;-1.4278;15.6;-31.9;-1.6;210.43;-32.84;3.73;0.0;45.123;;;;;;95.0;60.0;3.0;14750;2014-11-08 13:55:08:123
0.4597;5.0565;6.742;-0.5533;5.4823;8.4762;0.0936;-0.8855;-1.4278;18.4;-30.7;2.0;216.24;-32.84;3.73;0.0;36.353;;;;;;95.0;60.0;3.0;15250;2014-11-08 13:55:08:623
0.4597;5.0565;6.742;-0.5533;5.4823;8.4762;0.0936;-0.8855;-1.4278;15.1;-29.6;-4.0;210.38;-32.84;3.73;0.0;41.685;;;;;;95.0;60.0;3.0;15750;2014-11-08 13:55:09:123
0.4597;5.0565;6.742;-0.5533;5.4823;8.4762;0.0936;-0.8855;-1.4278;16.5;-28.1;5.3;214.0;-32.84;3.73;0.0;33.626;;;;;;95.0;60.0;3.0;16251;2014-11-08 13:55:09:624
0.4597;5.0565;6.742;-0.5533;5.4823;8.4762;0.0936;-0.8855;-1.4278;14.2;-27.5;-9.2;213.87;-32.84;3.73;0.0;43.5;;;;;;95.0;60.0;3.0;16751;2014-11-08 13:55:10:124
0.4597;5.0565;6.742;-0.5533;5.4823;8.4762;0.0936;-0.8855;-1.4278;16.7;-25.7;-4.7;221.91;-32.84;3.73;0.0;39.543;;;;;;95.0;60.0;3.0;17251;2014-11-08 13:55:10:624
0.4597;5.0565;6.742;-0.5533;5.4823;8.4762;0.0936;-0.8855;-1.4278;12.6;-25.3;-11.0;215.42;-32.84;3.73;0.0;42.904;;;;;;95.0;60.0;3.0;17752;2014-11-08 13:55:11:125
0.4597;5.0565;6.742;-0.5533;5.4823;8.4762;0.0936;-0.8855;-1.4278;15.6;-23.4;-8.1;226.94;-32.84;3.73;0.0;35.676;;;;;;95.0;60.0;3.0;18252;2014-11-08 13:55:11:625
0.4597;5.0565;6.742;-0.5533;5.4823;8.4762;0.0936;-0.8855;-1.4278;13.7;-23.0;-12.1;226.91;-32.84;3.73;0.0;43.712;;;;;;95.0;60.0;3.0;18752;2014-11-08 13:55:12:125
0.4597;5.0565;6.742;-0.5533;5.4823;8.4762;0.0936;-0.8855;-1.4278;16.4;-20.2;-10.7;237.31;-32.84;3.73;0.0;32.148;;;;;;95.0;60.0;3.0;19252;2014-11-08 13:55:12:625
0.4597;5.0565;6.742;-0.5533;5.4823;8.4762;0.0936;-0.8855;-1.4278;15.4;-20.4;-13.5;236.8;-32.84;3.73;0.0;42.476;;;;;;95.0;60.0;3.0;19752;2014-11-08 13:55:13:125
0.4597;5.0565;6.742;-0.5533;5.4823;8.4762;0.0936;-0.8855;-1.4278;17.4;-15.9;-13.6;251.83;-32.84;3.73;0.0;39.505;;;;;;95.0;60.0;3.0;20252;2014-11-08 13:55:13:625
0.4597;5.0565;6.742;-0.5533;5.4823;8.4762;0.0936;-0.8855;-1.4278;17.4;-18.4;-18.3;253.15;-32.84;3.73;0.0;39.813;;;;;;95.0;60.0;3.0;20752;2014-11-08 13:55:14:125
0.4597;5.0565;6.742;-0.5533;5.4823;8.4762;0.0936;-0.8855;-1.4278;18.8;-14.4;-27.0;281.56;-32.84;3.73;0.0;39.594;;;;;;95.0;60.0;3.0;21253;2014-11-08 13:55:14:626
0.4597;5.0565;6.742;-0.5533;5.4823;8.4762;0.0936;-0.8855;-1.4278;7.3;-31.0;-24.2;202.94;-32.84;3.73;0.0;43.051;;;;;;95.0;60.0;3.0;21753;2014-11-08 13:55:15:126
0.4597;5.0565;6.742;-0.5533;5.4823;8.4762;0.0936;-0.8855;-1.4278;-8.6;-29.0;-26.3;134.84;-32.84;3.73;0.0;42.877;;;;;;95.0;60.0;3.0;22253;2014-11-08 13:55:15:626
0.4597;5.0565;6.742;-0.5533;5.4823;8.4762;0.0936;-0.8855;-1.4278;-17.7;-25.7;-26.1;113.17;-32.84;3.73;0.0;39.079;;;;;;95.0;60.0;3.0;22753;2014-11-08 13:55:16:126
0.4597;5.0565;6.742;-0.5533;5.4823;8.4762;0.0936;-0.8855;-1.4278;-33.8;-15.2;3.5;115.38;-32.84;3.73;0.0;43.526;;;;;;95.0;60.0;3.0;23254;2014-11-08 13:55:16:627
0.4597;5.0565;6.742;-0.5533;5.4823;8.4762;0.0936;-0.8855;-1.4278;-26.9;-23.4;-9.2;119.24;-32.84;3.73;0.0;45.168;;;;;;95.0;60.0;3.0;23754;2014-11-08 13:55:17:127
0.4597;5.0565;6.742;-0.5533;5.4823;8.4762;0.0936;-0.8855;-1.4278;-30.8;-13.5;5.6;124.52;-32.84;3.73;0.0;34.501;;;;;;95.0;60.0;3.0;24254;2014-11-08 13:55:17:627
0.4597;5.0565;6.742;-0.5533;5.4823;8.4762;0.0936;-0.8855;-1.4278;-26.5;-21.3;-2.7;122.94;-32.84;3.73;0.0;46.581;;;;;;95.0;60.0;3.0;24755;2014-11-08 13:55:18:128
0.4597;5.0565;6.742;-0.5533;5.4823;8.4762;0.0936;-0.8855;-1.4278;-25.7;-21.0;3.2;128.09;-32.84;3.73;0.0;37.843;;;;;;95.0;60.0;3.0;25255;2014-11-08 13:55:18:628
0.4597;5.0565;6.742;-0.5533;5.4823;8.4762;0.0936;-0.8855;-1.4278;-26.9;-20.0;5.3;123.07;-32.84;3.73;0.0;47.082;;;;;;95.0;60.0;3.0;25755;2014-11-08 13:55:19:128
0.4597;5.0565;6.742;-0.5533;5.4823;8.4762;0.0936;-0.8855;-1.4278;-22.0;-26.2;-7.4;130.05;-32.84;3.73;0.0;37.467;;;;;;95.0;60.0;3.0;26255;2014-11-08 13:55:19:628
0.4597;5.0565;6.742;-0.5533;5.4823;8.4762;0.0936;-0.8855;-1.4278;-27.3;-20.2;3.9;131.72;-32.84;3.73;0.0;38.716;;;;;;95.0;60.0;3.0;26756;2014-11-08 13:55:20:129
0.4597;5.0565;6.742;-0.5533;5.4823;8.4762;0.0936;-0.8855;-1.4278;-25.9;-22.7;3.7;131.1;-32.84;3.73;0.0;39.164;;;;;;95.0;60.0;3.0;27256;2014-11-08 13:55:20:629
0.4597;5.0565;6.742;-0.5533;5.4823;8.4762;0.0936;-0.8855;-1.4278;-24.9;-25.5;0.7;132.03;-32.84;3.73;0.0;34.992;;;;;;95.0;60.0;3.0;27757;2014-11-08 13:55:21:130
0.4597;5.0565;6.742;-0.5533;5.4823;8.4762;0.0936;-0.8855;-1.4278;-21.7;-18.4;21.9;143.57;-32.84;3.73;0.0;35.78;;;;;;95.0;60.0;3.0;28258;2014-11-08 13:55:21:631
0.4597;5.0565;6.742;-0.5533;5.4823;8.4762;0.0936;-0.8855;-1.4278;-2.7;-24.1;29.0;181.82;-32.84;3.73;0.0;41.894;;;;;;95.0;60.0;3.0;28759;2014-11-08 13:55:22:132
0.4597;5.0565;6.742;-0.5533;5.4823;8.4762;0.0936;-0.8855;-1.4278;7.3;-33.1;26.8;191.74;-32.84;3.73;0.0;39.817;;;;;;95.0;60.0;3.0;29259;2014-11-08 13:55:22:632
0.4597;5.0565;6.742;-0.5533;5.4823;8.4762;0.0936;-0.8855;-1.4278;20.8;-26.8;24.4;221.43;-32.84;3.73;0.0;45.462;;;;;;95.0;60.0;3.0;29760;2014-11-08 13:55:23:133
0.4597;5.0565;6.742;-0.5533;5.4823;8.4762;0.0936;-0.8855;-1.4278;15.2;-25.5;19.8;204.85;-32.84;3.73;0.0;46.612;;;;;;95.0;60.0;3.0;30261;2014-11-08 13:55:23:634
0.4597;5.0565;6.742;-0.5533;5.4823;8.4762;0.0936;-0.8855;-1.4278;10.4;-10.7;28.2;206.15;-32.84;3.73;0.0;46.235;;;;;;95.0;60.0;3.0;30762;2014-11-08 13:55:24:135
0.4597;5.0565;6.742;-0.5533;5.4823;8.4762;0.0936;-0.8855;-1.4278;11.8;-18.3;26.0;205.41;-32.84;3.73;0.0;46.724;;;;;;95.0;60.0;3.0;31262;2014-11-08 13:55:24:635
0.4597;5.0565;6.742;-0.5533;5.4823;8.4762;0.0936;-0.8855;-1.4278;3.7;-10.3;32.9;202.46;-32.84;3.73;0.0;50.2;;;;;;95.0;60.0;3.0;31762;2014-11-08 13:55:25:135
0.4597;5.0565;6.742;-0.5533;5.4823;8.4762;0.0936;-0.8855;-1.4278;9.3;-20.6;28.8;198.22;-32.84;3.73;0.0;50.342;;;;;;95.0;60.0;3.0;32262;2014-11-08 13:55:25:635
0.4597;5.0565;6.742;-0.5533;5.4823;8.4762;0.0936;-0.8855;-1.4278;9.3;-8.0;33.7;204.29;-32.84;3.73;0.0;40.589;;;;;;95.0;60.0;3.0;32762;2014-11-08 13:55:26:135
0.4597;5.0565;6.742;-0.5533;5.4823;8.4762;0.0936;-0.8855;-1.4278;8.0;-23.4;26.6;196.14;-32.84;3.73;0.0;38.791;;;;;;95.0;60.0;3.0;33263;2014-11-08 13:55:26:636
0.4597;5.0565;6.742;-0.5533;5.4823;8.4762;0.0936;-0.8855;-1.4278;8.0;-9.0;32.9;201.95;-32.84;3.73;0.0;35.271;;;;;;95.0;60.0;3.0;33763;2014-11-08 13:55:27:136
0.4597;5.0565;6.742;-0.5533;5.4823;8.4762;0.0936;-0.8855;-1.4278;5.9;-27.1;20.7;192.26;-32.84;3.73;0.0;46.359;;;;;;95.0;60.0;3.0;34263;2014-11-08 13:55:27:636
0.4597;5.0565;6.742;-0.5533;5.4823;8.4762;0.0936;-0.8855;-1.4278;-0.5;-18.1;28.7;183.51;-32.84;3.73;0.0;48.555;;;;;;95.0;60.0;3.0;34764;2014-11-08 13:55:28:137
0.4597;5.0565;6.742;-0.5533;5.4823;8.4762;0.0936;-0.8855;-1.4278;1.9;-24.0;23.3;186.13;-32.84;3.73;0.0;46.733;;;;;;95.0;60.0;3.0;35264;2014-11-08 13:55:28:637
0.4597;5.0565;6.742;-0.5533;5.4823;8.4762;0.0936;-0.8855;-1.4278;-0.1;-27.1;21.3;185.32;-32.84;3.73;0.0;42.271;;;;;;95.0;60.0;3.0;35765;2014-11-08 13:55:29:138
0.4597;5.0565;6.742;-0.5533;5.4823;8.4762;0.0936;-0.8855;-1.4278;-14.1;-22.6;22.1;158.44;-32.84;3.73;0.0;42.169;;;;;;95.0;60.0;3.0;36266;2014-11-08 13:55:29:639
0.4597;5.0565;6.742;-0.5533;5.4823;8.4762;0.0936;-0.8855;-1.4278;-16.5;-27.6;12.0;153.6;-32.84;3.73;0.0;31.622;;;;;;95.0;60.0;3.0;36766;2014-11-08 13:55:30:139
0.4597;5.0565;6.742;-0.5533;5.4823;8.4762;0.0936;-0.8855;-1.4278;-15.5;-28.0;14.6;156.5;-32.84;3.73;0.0;35.012;;;;;;95.0;60.0;3.0;37266;2014-11-08 13:55:30:639
0.4597;5.0565;6.742;-0.5533;5.4823;8.4762;0.0936;-0.8855;-1.4278;-7.7;-28.2;20.3;164.1;-32.84;3.73;0.0;33.344;;;;;;95.0;60.0;3.0;37766;2014-11-08 13:55:31:139
0.4597;5.0565;6.742;-0.5533;5.4823;8.4762;0.0936;-0.8855;-1.4278;7.2;-26.7;26.0;193.37;-32.84;3.73;0.0;37.21;;;;;;95.0;60.0;3.0;38267;2014-11-08 13:55:31:640
0.4597;5.0565;6.742;-0.5533;5.4823;8.4762;0.0936;-0.8855;-1.4278;11.6;-27.5;24.0;201.01;-32.84;3.73;0.0;41.589;;;;;;95.0;60.0;3.0;38768;2014-11-08 13:55:32:141
0.4597;5.0565;6.742;-0.5533;5.4823;8.4762;0.0936;-0.8855;-1.4278;4.5;-31.5;23.6;189.57;-32.84;3.73;0.0;36.254;;;;;;95.0;60.0;3.0;39268;2014-11-08 13:55:32:641
0.4597;5.0565;6.742;-0.5533;5.4823;8.4762;0.0936;-0.8855;-1.4278;-12.7;-19.0;30.2;161.36;-32.84;3.73;0.0;36.858;;;;;;95.0;60.0;3.0;39769;2014-11-08 13:55:33:142
0.4597;5.0565;6.742;-0.5533;5.4823;8.4762;0.0936;-0.8855;-1.4278;-20.4;-31.7;11.2;150.16;-32.84;3.73;0.0;46.899;;;;;;95.0;60.0;3.0;40269;2014-11-08 13:55:33:642
0.4597;5.0565;6.742;-0.5533;5.4823;8.4762;0.0936;-0.8855;-1.4278;-25.1;-18.9;23.3;145.73;-32.84;3.73;0.0;43.822;;;;;;95.0;60.0;3.0;40770;2014-11-08 13:55:34:143
0.4597;5.0565;6.742;-0.5533;5.4823;8.4762;0.0936;-0.8855;-1.4278;-22.7;-31.9;4.0;142.77;-32.84;3.73;0.0;44.297;;;;;;95.0;60.0;3.0;41271;2014-11-08 13:55:34:644
0.4597;5.0565;6.742;-0.5533;5.4823;8.4762;0.0936;-0.8855;-1.4278;-26.5;-25.3;8.5;138.58;-32.84;3.73;0.0;33.686;;;;;;95.0;60.0;3.0;41771;2014-11-08 13:55:35:144
0.4597;5.0565;6.742;-0.5533;5.4823;8.4762;0.0936;-0.8855;-1.4278;-26.3;-27.5;-0.2;133.29;-32.84;3.73;0.0;37.355;;;;;;95.0;60.0;3.0;42271;2014-11-08 13:55:35:644
0.4597;5.0565;6.742;-0.5533;5.4823;8.4762;0.0936;-0.8855;-1.4278;-27.7;-16.3;-0.3;116.89;-32.84;3.73;0.0;51.342;;;;;;95.0;60.0;3.0;42771;2014-11-08 13:55:36:144
0.4597;5.0565;6.742;-0.5533;5.4823;8.4762;0.0936;-0.8855;-1.4278;-29.0;-7.5;7.7;111.57;-32.84;3.73;0.0;52.521;;;;;;95.0;60.0;3.0;43271;2014-11-08 13:55:36:644
0.4597;5.0565;6.742;-0.5533;5.4823;8.4762;0.0936;-0.8855;-1.4278;-28.2;-18.3;5.1;122.21;-32.84;3.73;0.0;41.341;;;;;;95.0;60.0;3.0;43773;2014-11-08 13:55:37:146
0.4597;5.0565;6.742;-0.5533;5.4823;8.4762;0.0936;-0.8855;-1.4278;-27.2;-19.2;9.0;129.58;-32.84;3.73;0.0;50.177;;;;;;95.0;60.0;3.0;44273;2014-11-08 13:55:37:646
0.4597;5.0565;6.742;-0.5533;5.4823;8.4762;0.0936;-0.8855;-1.4278;-26.1;-10.2;15.7;132.65;-32.84;3.73;0.0;52.156;;;;;;95.0;60.0;3.0;44773;2014-11-08 13:55:38:146
0.4597;5.0565;6.742;-0.5533;5.4823;8.4762;0.0936;-0.8855;-1.4278;-24.2;-21.6;6.5;133.48;-32.84;3.73;0.0;40.308;;;;;;95.0;60.0;3.0;45274;2014-11-08 13:55:38:647
0.4597;5.0565;6.742;-0.5533;5.4823;8.4762;0.0936;-0.8855;-1.4278;-24.7;-21.4;2.8;130.92;-32.84;3.73;0.0;48.417;;;;;;95.0;60.0;3.0;45774;2014-11-08 13:55:39:147
0.4597;5.0565;6.742;-0.5533;5.4823;8.4762;0.0936;-0.8855;-1.4278;-24.1;-24.1;2.8;133.62;-32.84;3.73;0.0;35.018;;;;;;95.0;60.0;3.0;46274;2014-11-08 13:55:39:647
0.4597;5.0565;6.742;-0.5533;5.4823;8.4762;0.0936;-0.8855;-1.4278;-24.6;-22.2;-6.2;128.18;-32.84;3.73;0.0;44.922;;;;;;95.0;60.0;3.0;46776;2014-11-08 13:55:40:149
0.4597;5.0565;6.742;-0.5533;5.4823;8.4762;0.0936;-0.8855;-1.4278;4.6;-19.1;-31.5;288.4;-32.84;3.73;0.0;43.906;;;;;;95.0;59.0;3.0;47277;2014-11-08 13:55:40:650
0.4597;5.0565;6.742;-0.5533;5.4823;8.4762;0.0936;-0.8855;-1.4278;8.7;-29.8;-13.8;204.99;-32.84;3.73;0.0;44.214;;;;;;95.0;59.0;3.0;47778;2014-11-08 13:55:41:151
0.4597;5.0565;6.742;-0.5533;5.4823;8.4762;0.0936;-0.8855;-1.4278;18.0;-25.9;-14.5;231.35;-32.84;3.73;0.0;45.98;;;;;;95.0;59.0;3.0;48278;2014-11-08 13:55:41:651
0.4597;5.0565;6.742;-0.5533;5.4823;8.4762;0.0936;-0.8855;-1.4278;18.4;-28.9;-3.4;236.09;-32.84;3.73;0.0;38.651;;;;;;95.0;59.0;3.0;48778;2014-11-08 13:55:42:151
0.4597;5.0565;6.742;-0.5533;5.4823;8.4762;0.0936;-0.8855;-1.4278;19.5;-26.7;-11.8;231.08;-32.84;3.73;0.0;54.193;;;;;;95.0;59.0;3.0;49278;2014-11-08 13:55:42:651
0.4597;5.0565;6.742;-0.5533;5.4823;8.4762;0.0936;-0.8855;-1.4278;21.0;-27.0;-11.4;249.92;-32.84;3.73;0.0;38.456;;;;;;95.0;59.0;3.0;49779;2014-11-08 13:55:43:152
0.4597;5.0565;6.742;-0.5533;5.4823;8.4762;0.0936;-0.8855;-1.4278;17.7;-29.9;-7.9;220.75;-32.84;3.73;0.0;47.627;;;;;;95.0;59.0;3.0;50279;2014-11-08 13:55:43:652
0.4597;5.0565;6.742;-0.5533;5.4823;8.4762;0.0936;-0.8855;-1.4278;25.6;-24.4;-10.7;242.21;-32.84;3.73;0.0;64.862;;;;;;95.0;59.0;3.0;50780;2014-11-08 13:55:44:153
0.4597;5.0565;6.742;-0.5533;5.4823;8.4762;0.0936;-0.8855;-1.4278;12.8;-34.8;-5.3;202.72;-32.84;3.73;0.0;47.701;;;;;;95.0;59.0;3.0;51280;2014-11-08 13:55:44:653
0.4597;5.0565;6.742;-0.5533;5.4823;8.4762;0.0936;-0.8855;-1.4278;29.0;-23.2;-10.6;246.37;-32.84;3.73;0.0;39.859;;;;;;95.0;59.0;3.0;51780;2014-11-08 13:55:45:153
0.4597;5.0565;6.742;-0.5533;5.4823;8.4762;0.0936;-0.8855;-1.4278;14.7;-36.1;0.2;213.38;-32.84;3.73;0.0;52.704;;;;;;95.0;59.0;3.0;52281;2014-11-08 13:55:45:654
0.4597;5.0565;6.742;-0.5533;5.4823;8.4762;0.0936;-0.8855;-1.4278;25.7;-28.8;-10.0;234.51;-32.84;3.73;0.0;51.802;;;;;;95.0;59.0;3.0;52781;2014-11-08 13:55:46:154
0.4597;5.0565;6.742;-0.5533;5.4823;8.4762;0.0936;-0.8855;-1.4278;14.8;-36.4;1.1;215.18;-32.84;3.73;0.0;50.214;;;;;;95.0;59.0;3.0;53281;2014-11-08 13:55:46:654
0.4597;5.0565;6.742;-0.5533;5.4823;8.4762;0.0936;-0.8855;-1.4278;25.0;-29.8;-11.4;232.83;-32.84;3.73;0.0;49.947;;;;;;95.0;59.0;3.0;53781;2014-11-08 13:55:47:154
0.4597;5.0565;6.742;-0.5533;5.4823;8.4762;0.0936;-0.8855;-1.4278;22.2;-33.1;-0.2;236.11;-32.84;3.73;0.0;42.49;;;;;;95.0;59.0;3.0;54282;2014-11-08 13:55:47:655
0.4597;5.0565;6.742;-0.5533;5.4823;8.4762;0.0936;-0.8855;-1.4278;21.8;-33.0;-7.8;223.45;-32.84;3.73;0.0;52.478;;;;;;95.0;59.0;3.0;54783;2014-11-08 13:55:48:156
0.4597;5.0565;6.742;-0.5533;5.4823;8.4762;0.0936;-0.8855;-1.4278;28.9;-26.2;-9.1;246.53;-32.84;3.73;0.0;43.206;;;;;;95.0;59.0;3.0;55284;2014-11-08 13:55:48:657
0.4597;5.0565;6.742;-0.5533;5.4823;8.4762;0.0936;-0.8855;-1.4278;15.7;-35.9;-6.3;210.51;-32.84;3.73;0.0;50.616;;;;;;95.0;59.0;3.0;55785;2014-11-08 13:55:49:158
0.4597;5.0565;6.742;-0.5533;5.4823;8.4762;0.0936;-0.8855;-1.4278;29.7;-24.8;-8.9;247.06;-32.84;3.73;0.0;39.655;;;;;;95.0;59.0;3.0;56286;2014-11-08 13:55:49:659
0.4597;5.0565;6.742;-0.5533;5.4823;8.4762;0.0936;-0.8855;-1.4278;14.2;-36.0;-7.0;208.09;-32.84;3.73;0.0;53.539;;;;;;95.0;59.0;3.0;56786;2014-11-08 13:55:50:159
0.4597;5.0565;6.742;-0.5533;5.4823;8.4762;0.0936;-0.8855;-1.4278;30.7;-22.9;-13.5;239.59;-32.84;3.73;0.0;50.373;;;;;;95.0;59.0;3.0;57287;2014-11-08 13:55:50:660
0.4597;5.0565;6.742;-0.5533;5.4823;8.4762;0.0936;-0.8855;-1.4278;13.0;-37.0;-5.5;204.37;-32.84;3.73;0.0;53.002;;;;;;95.0;59.0;3.0;57788;2014-11-08 13:55:51:161
0.4597;5.0565;6.742;-0.5533;5.4823;8.4762;0.0936;-0.8855;-1.4278;24.0;-28.1;-16.0;230.53;-32.84;3.73;0.0;49.25;;;;;;95.0;59.0;3.0;58289;2014-11-08 13:55:51:662
0.4597;5.0565;6.742;-0.5533;5.4823;8.4762;0.0936;-0.8855;-1.4278;16.7;-36.0;-4.1;211.29;-32.84;3.73;0.0;38.556;;;;;;95.0;59.0;3.0;58789;2014-11-08 13:55:52:162
0.4597;5.0565;6.742;-0.5533;5.4823;8.4762;0.0936;-0.8855;-1.4278;21.9;-29.0;-17.9;229.29;-32.84;3.73;0.0;52.661;;;;;;95.0;59.0;3.0;59290;2014-11-08 13:55:52:663
0.4597;5.0565;6.742;-0.5533;5.4823;8.4762;0.0936;-0.8855;-1.4278;15.9;-35.7;-11.7;213.22;-32.84;3.73;0.0;36.314;;;;;;95.0;59.0;3.0;59790;2014-11-08 13:55:53:163
0.4597;5.0565;6.742;-0.5533;5.4823;8.4762;0.0936;-0.8855;-1.4278;11.1;-34.6;-19.3;182.55;-32.84;3.73;0.0;47.452;;;;;;95.0;59.0;3.0;60290;2014-11-08 13:55:53:663
0.4597;5.0565;6.742;-0.5533;5.4823;8.4762;0.0936;-0.8855;-1.4278;16.3;-28.6;-25.5;234.38;-32.84;3.73;0.0;38.083;;;;;;95.0;59.0;3.0;60790;2014-11-08 13:55:54:163
0.4597;5.0565;6.742;-0.5533;5.4823;8.4762;0.0936;-0.8855;-1.4278;-4.2;-38.4;-12.7;172.72;-32.84;3.73;0.0;48.504;;;;;;95.0;59.0;3.0;61291;2014-11-08 13:55:54:664
0.4597;5.0565;6.742;-0.5533;5.4823;8.4762;0.0936;-0.8855;-1.4278;15.3;-25.3;-27.6;247.95;-32.84;3.73;0.0;37.985;;;;;;95.0;59.0;3.0;61791;2014-11-08 13:55:55:164
0.4597;5.0565;6.742;-0.5533;5.4823;8.4762;0.0936;-0.8855;-1.4278;-8.0;-35.7;-13.9;164.91;-32.84;3.73;0.0;47.056;;;;;;95.0;59.0;3.0;62292;2014-11-08 13:55:55:665
0.4597;5.0565;6.742;-0.5533;5.4823;8.4762;0.0936;-0.8855;-1.4278;7.5;-26.6;-29.1;222.25;-32.84;3.73;0.0;48.208;;;;;;95.0;59.0;3.0;62792;2014-11-08 13:55:56:165
0.4597;5.0565;6.742;-0.5533;5.4823;8.4762;0.0936;-0.8855;-1.4278;-9.2;-36.1;-11.6;157.92;-32.84;3.73;0.0;46.825;;;;;;95.0;59.0;3.0;63292;2014-11-08 13:55:56:665
0.4597;5.0565;6.742;-0.5533;5.4823;8.4762;0.0936;-0.8855;-1.4278;1.5;-30.4;-24.9;181.81;-32.84;3.73;0.0;45.504;;;;;;95.0;59.0;3.0;63792;2014-11-08 13:55:57:165
0.4597;5.0565;6.742;-0.5533;5.4823;8.4762;0.0936;-0.8855;-1.4278;-2.4;-32.5;-21.8;219.24;-32.84;3.73;0.0;36.723;;;;;;95.0;59.0;3.0;64293;2014-11-08 13:55:57:666
0.4597;5.0565;6.742;-0.5533;5.4823;8.4762;0.0936;-0.8855;-1.4278;-3.1;-32.3;-21.8;163.65;-32.84;3.73;0.0;46.017;;;;;;95.0;59.0;3.0;64793;2014-11-08 13:55:58:166
0.4597;5.0565;6.742;-0.5533;5.4823;8.4762;0.0936;-0.8855;-1.4278;3.5;-28.5;-28.1;205.75;-32.84;3.73;0.0;40.751;;;;;;95.0;59.0;3.0;65294;2014-11-08 13:55:58:667
0.4597;5.0565;6.742;-0.5533;5.4823;8.4762;0.0936;-0.8855;-1.4278;-16.3;-33.3;-11.5;143.25;-32.84;3.73;0.0;45.55;;;;;;95.0;59.0;3.0;65795;2014-11-08 13:55:59:168
0.4597;5.0565;6.742;-0.5533;5.4823;8.4762;0.0936;-0.8855;-1.4278;-1.1;-27.4;-29.1;151.83;-32.84;3.73;0.0;46.697;;;;;;95.0;59.0;3.0;66296;2014-11-08 13:55:59:669
0.4597;5.0565;6.742;-0.5533;5.4823;8.4762;0.0936;-0.8855;-1.4278;-21.0;-32.1;-7.8;137.33;-32.84;3.73;0.0;41.678;;;;;;95.0;59.0;3.0;66797;2014-11-08 13:56:00:170
0.4597;5.0565;6.742;-0.5533;5.4823;8.4762;0.0936;-0.8855;-1.4278;-9.5;-29.8;-25.1;138.51;-32.84;3.73;0.0;48.178;;;;;;95.0;59.0;3.0;67298;2014-11-08 13:56:00:671
0.4597;5.0565;6.742;-0.5533;5.4823;8.4762;0.0936;-0.8855;-1.4278;-14.1;-33.3;-13.6;147.88;-32.84;3.73;0.0;40.192;;;;;;95.0;59.0;3.0;67799;2014-11-08 13:56:01:172
0.4597;5.0565;6.742;-0.5533;5.4823;8.4762;0.0936;-0.8855;-1.4278;-16.2;-30.5;-16.5;135.18;-32.84;3.73;0.0;51.561;;;;;;95.0;59.0;3.0;68299;2014-11-08 13:56:01:672
0.4597;5.0565;6.742;-0.5533;5.4823;8.4762;0.0936;-0.8855;-1.4278;-7.2;-29.1;-26.7;134.84;-32.84;3.73;0.0;44.149;;;;;;95.0;59.0;3.0;68799;2014-11-08 13:56:02:172
0.4597;5.0565;6.742;-0.5533;5.4823;8.4762;0.0936;-0.8855;-1.4278;-25.5;-28.6;-7.0;130.19;-32.84;3.73;0.0;41.169;;;;;;95.0;59.0;3.0;69299;2014-11-08 13:56:02:672
0.4597;5.0565;6.742;-0.5533;5.4823;8.4762;0.0936;-0.8855;-1.4278;-14.9;-29.4;-20.9;130.46;-32.84;3.73;0.0;45.946;;;;;;95.0;59.0;3.0;69799;2014-11-08 13:56:03:172
0.4597;5.0565;6.742;-0.5533;5.4823;8.4762;0.0936;-0.8855;-1.4278;-25.3;-29.3;-5.9;135.69;-32.84;3.73;0.0;34.598;;;;;;95.0;59.0;3.0;70299;2014-11-08 13:56:03:672
0.4597;5.0565;6.742;-0.5533;5.4823;8.4762;0.0936;-0.8855;-1.4278;-20.4;-29.1;-17.5;124.05;-32.84;3.73;0.0;44.974;;;;;;95.0;59.0;3.0;70799;2014-11-08 13:56:04:172
0.4597;5.0565;6.742;-0.5533;5.4823;8.4762;0.0936;-0.8855;-1.4278;2.4;-28.7;-27.7;181.08;-32.84;3.73;0.0;38.391;;;;;;95.0;59.0;3.0;71299;2014-11-08 13:56:04:672
0.4597;5.0565;6.742;-0.5533;5.4823;8.4762;0.0936;-0.8855;-1.4278;17.4;-35.4;-6.5;213.17;-32.84;3.73;0.0;36.357;;;;;;95.0;59.0;3.0;71799;2014-11-08 13:56:05:172
0.4597;5.0565;6.742;-0.5533;5.4823;8.4762;0.0936;-0.8855;-1.4278;26.0;-30.9;-7.2;230.06;-32.84;3.73;0.0;29.613;;;;;;95.0;59.0;3.0;72299;2014-11-08 13:56:05:672
0.4597;5.0565;6.742;-0.5533;5.4823;8.4762;0.0936;-0.8855;-1.4278;29.2;-27.6;-5.3;234.2;-32.84;3.73;0.0;33.605;;;;;;95.0;59.0;3.0;72800;2014-11-08 13:56:06:173
0.4597;5.0565;6.742;-0.5533;5.4823;8.4762;0.0936;-0.8855;-1.4278;24.0;-30.0;8.2;220.46;-32.84;3.73;0.0;43.383;;;;;;95.0;59.0;3.0;73301;2014-11-08 13:56:06:674
0.4597;5.0565;6.742;-0.5533;5.4823;8.4762;0.0936;-0.8855;-1.4278;24.4;-30.6;2.9;217.76;-32.84;3.73;0.0;45.789;;;;;;95.0;59.0;3.0;73801;2014-11-08 13:56:07:174
0.4597;5.0565;6.742;-0.5533;5.4823;8.4762;0.0936;-0.8855;-1.4278;30.7;-25.4;-2.1;238.57;-32.84;3.73;0.0;42.483;;;;;;95.0;59.0;3.0;74301;2014-11-08 13:56:07:674
0.4597;5.0565;6.742;-0.5533;5.4823;8.4762;0.0936;-0.8855;-1.4278;21.6;-32.4;5.4;220.46;-32.84;3.73;0.0;38.724;;;;;;95.0;59.0;3.0;74801;2014-11-08 13:56:08:174
0.4597;5.0565;6.742;-0.5533;5.4823;8.4762;0.0936;-0.8855;-1.4278;25.4;-30.2;-5.8;229.36;-32.84;3.73;0.0;41.264;;;;;;95.0;59.0;3.0;75301;2014-11-08 13:56:08:674
0.4597;5.0565;6.742;-0.5533;5.4823;8.4762;0.0936;-0.8855;-1.4278;27.6;-29.3;-3.6;231.01;-32.84;3.73;0.0;29.695;;;;;;95.0;59.0;3.0;75801;2014-11-08 13:56:09:174
0.4597;5.0565;6.742;-0.5533;5.4823;8.4762;0.0936;-0.8855;-1.4278;28.6;-26.8;5.1;230.22;-32.84;3.73;0.0;30.237;;;;;;95.0;59.0;3.0;76301;2014-11-08 13:56:09:674
0.4597;5.0565;6.742;-0.5533;5.4823;8.4762;0.0936;-0.8855;-1.4278;29.5;-26.3;5.6;231.61;-32.84;3.73;0.0;29.894;;;;;;95.0;59.0;3.0;76801;2014-11-08 13:56:10:174
0.4597;5.0565;6.742;-0.5533;5.4823;8.4762;0.0936;-0.8855;-1.4278;29.9;-25.2;6.0;232.59;-32.84;3.73;0.0;24.221;;;;;;95.0;59.0;3.0;77301;2014-11-08 13:56:10:674
0.4597;5.0565;6.742;-0.5533;5.4823;8.4762;0.0936;-0.8855;-1.4278;30.1;-24.6;6.7;232.01;-32.84;3.73;0.0;25.31;;;;;;95.0;59.0;3.0;77802;2014-11-08 13:56:11:175
0.4597;5.0565;6.742;-0.5533;5.4823;8.4762;0.0936;-0.8855;-1.4278;30.3;-24.6;7.1;232.01;-32.84;3.73;0.0;24.443;;;;;;95.0;59.0;3.0;78303;2014-11-08 13:56:11:676
0.4597;5.0565;6.742;-0.5533;5.4823;8.4762;0.0936;-0.8855;-1.4278;30.3;-24.6;7.1;232.01;-32.84;3.73;0.0;24.462;;;;;;95.0;59.0;3.0;78803;2014-11-08 13:56:12:176
0.4597;5.0565;6.742;-0.5533;5.4823;8.4762;0.0936;-0.8855;-1.4278;30.3;-24.4;7.3;233.01;-32.84;3.73;0.0;25.086;;;;;;95.0;59.0;3.0;79305;2014-11-08 13:56:12:678
0.4597;5.0565;6.742;-0.5533;5.4823;8.4762;0.0936;-0.8855;-1.4278;30.5;-24.2;7.9;233.36;-32.84;3.73;0.0;24.534;;;;;;95.0;59.0;3.0;79806;2014-11-08 13:56:13:179
0.4597;5.0565;6.742;-0.5533;5.4823;8.4762;0.0936;-0.8855;-1.4278;30.5;-24.2;8.3;233.36;-32.84;3.73;0.0;24.816;;;;;;95.0;59.0;3.0;80306;2014-11-08 13:56:13:679
0.4597;5.0565;6.742;-0.5533;5.4823;8.4762;0.0936;-0.8855;-1.4278;30.5;-24.2;7.9;233.36;-32.84;3.73;0.0;25.456;;;;;;95.0;59.0;3.0;80807;2014-11-08 13:56:14:180
0.4597;5.0565;6.742;-0.5533;5.4823;8.4762;0.0936;-0.8855;-1.4278;30.3;-24.4;6.8;233.01;-32.84;3.73;0.0;24.954;;;;;;95.0;59.0;3.0;81307;2014-11-08 13:56:14:680
0.4597;5.0565;6.742;-0.5533;5.4823;8.4762;0.0936;-0.8855;-1.4278;30.3;-24.8;6.4;232.59;-32.84;3.73;0.0;25.236;;;;;;95.0;59.0;3.0;81807;2014-11-08 13:56:15:180
0.4597;5.0565;6.742;-0.5533;5.4823;8.4762;0.0936;-0.8855;-1.4278;29.9;-24.8;8.9;230.89;-32.84;3.73;0.0;25.151;;;;;;95.0;59.0;3.0;82308;2014-11-08 13:56:15:681
0.4597;5.0565;6.742;-0.5533;5.4823;8.4762;0.0936;-0.8855;-1.4278;29.7;-24.3;8.9;231.85;-32.84;3.73;0.0;28.712;;;;;;95.0;59.0;3.0;82809;2014-11-08 13:56:16:182
0.4597;5.0565;6.742;-0.5533;5.4823;8.4762;0.0936;-0.8855;-1.4278;22.2;-27.8;13.4;222.76;-32.84;3.73;0.0;28.06;;;;;;95.0;59.0;3.0;83309;2014-11-08 13:56:16:682
0.4597;5.0565;6.742;-0.5533;5.4823;8.4762;0.0936;-0.8855;-1.4278;15.0;-29.0;19.3;205.41;-32.84;3.73;0.0;28.258;;;;;;95.0;59.0;3.0;83809;2014-11-08 13:56:17:182
0.4597;5.0565;6.742;-0.5533;5.4823;8.4762;0.0936;-0.8855;-1.4278;14.8;-20.9;30.2;204.44;-32.84;3.73;0.0;29.485;;;;;;95.0;59.0;3.0;84309;2014-11-08 13:56:17:682
0.4597;5.0565;6.742;-0.5533;5.4823;8.4762;0.0936;-0.8855;-1.4278;15.0;-22.7;27.2;206.6;-32.84;3.73;0.0;32.335;;;;;;95.0;59.0;3.0;84809;2014-11-08 13:56:18:182
0.4597;5.0565;6.742;-0.5533;5.4823;8.4762;0.0936;-0.8855;-1.4278;17.3;-26.1;21.8;209.03;-32.84;3.73;0.0;31.232;;;;;;95.0;59.0;3.0;85310;2014-11-08 13:56:18:683
0.4597;5.0565;6.742;-0.5533;5.4823;8.4762;0.0936;-0.8855;-1.4278;19.8;-21.6;24.9;214.59;-32.84;3.73;0.0;32.463;;;;;;95.0;59.0;3.0;85810;2014-11-08 13:56:19:183
0.4597;5.0565;6.742;-0.5533;5.4823;8.4762;0.0936;-0.8855;-1.4278;20.2;-18.8;27.4;216.02;-32.84;3.73;0.0;27.659;;;;;;95.0;59.0;3.0;86311;2014-11-08 13:56:19:684
0.4597;5.0565;6.742;-0.5533;5.4823;8.4762;0.0936;-0.8855;-1.4278;21.0;-23.9;21.8;215.55;-32.84;3.73;0.0;31.638;;;;;;95.0;59.0;3.0;86811;2014-11-08 13:56:20:184
0.4597;5.0565;6.742;-0.5533;5.4823;8.4762;0.0936;-0.8855;-1.4278;18.7;-28.4;20.3;211.96;-32.84;3.73;0.0;28.224;;;;;;95.0;59.0;3.0;87311;2014-11-08 13:56:20:684
0.4597;5.0565;6.742;-0.5533;5.4823;8.4762;0.0936;-0.8855;-1.4278;18.2;-24.6;23.1;210.67;-32.84;3.73;0.0;29.119;;;;;;95.0;59.0;3.0;87812;2014-11-08 13:56:21:185
0.4597;5.0565;6.742;-0.5533;5.4823;8.4762;0.0936;-0.8855;-1.4278;16.4;-25.7;24.1;207.09;-32.84;3.73;0.0;35.072;;;;;;95.0;59.0;3.0;88312;2014-11-08 13:56:21:685
0.4597;5.0565;6.742;-0.5533;5.4823;8.4762;0.0936;-0.8855;-1.4278;20.7;-28.5;17.0;214.6;-32.84;3.73;0.0;33.437;;;;;;95.0;59.0;3.0;88812;2014-11-08 13:56:22:185
0.4597;5.0565;6.742;-0.5533;5.4823;8.4762;0.0936;-0.8855;-1.4278;17.5;-28.8;19.4;209.14;-32.84;3.73;0.0;29.734;;;;;;95.0;59.0;3.0;89313;2014-11-08 13:56:22:686
0.4597;5.0565;6.742;-0.5533;5.4823;8.4762;0.0936;-0.8855;-1.4278;19.4;-23.0;24.6;212.61;-32.84;3.73;0.0;31.264;;;;;;95.0;59.0;3.0;89813;2014-11-08 13:56:23:186
0.4597;5.0565;6.742;-0.5533;5.4823;8.4762;0.0936;-0.8855;-1.4278;22.1;-27.3;14.8;211.0;-32.84;3.73;0.0;34.994;;;;;;95.0;59.0;3.0;90313;2014-11-08 13:56:23:686
0.4597;5.0565;6.742;-0.5533;5.4823;8.4762;0.0936;-0.8855;-1.4278;26.9;-28.0;-5.2;233.26;-32.84;3.73;0.0;31.485;;;;;;95.0;59.0;3.0;90813;2014-11-08 13:56:24:186
0.4597;5.0565;6.742;-0.5533;5.4823;8.4762;0.0936;-0.8855;-1.4278;25.1;-28.3;-13.4;237.07;-32.84;3.73;0.0;26.727;;;;;;95.0;59.0;3.0;91313;2014-11-08 13:56:24:686
0.4597;5.0565;6.742;-0.5533;5.4823;8.4762;0.0936;-0.8855;-1.4278;21.7;-28.9;-16.1;234.47;-32.84;3.73;0.0;27.642;;;;;;95.0;59.0;3.0;91813;2014-11-08 13:56:25:186
0.4597;5.0565;6.742;-0.5533;5.4823;8.4762;0.0936;-0.8855;-1.4278;19.2;-29.7;-16.5;231.58;-32.84;3.73;0.0;27.941;;;;;;95.0;59.0;3.0;92313;2014-11-08 13:56:25:686
0.4597;5.0565;6.742;-0.5533;5.4823;8.4762;0.0936;-0.8855;-1.4278;5.0;-33.6;-17.1;191.44;-32.84;3.73;0.0;32.043;;;;;;95.0;59.0;3.0;92813;2014-11-08 13:56:26:186
0.4597;5.0565;6.742;-0.5533;5.4823;8.4762;0.0936;-0.8855;-1.4278;-16.5;-31.6;-18.4;137.6;-32.84;3.73;0.0;35.618;;;;;;95.0;59.0;3.0;93313;2014-11-08 13:56:26:686
0.4597;5.0565;6.742;-0.5533;5.4823;8.4762;0.0936;-0.8855;-1.4278;-8.7;-29.7;-25.0;138.51;-32.84;3.73;0.0;32.066;;;;;;95.0;59.0;3.0;93813;2014-11-08 13:56:27:186
0.4597;5.0565;6.742;-0.5533;5.4823;8.4762;0.0936;-0.8855;-1.4278;8.1;-29.0;-26.9;213.31;-32.84;3.73;0.0;31.399;;;;;;95.0;59.0;3.0;94314;2014-11-08 13:56:27:687
0.4597;5.0565;6.742;-0.5533;5.4823;8.4762;0.0936;-0.8855;-1.4278;23.2;-31.4;-6.2;225.74;-32.84;3.73;0.0;31.736;;;;;;95.0;59.0;3.0;94814;2014-11-08 13:56:28:187
0.4597;5.0565;6.742;-0.5533;5.4823;8.4762;0.0936;-0.8855;-1.4278;29.6;-27.1;3.9;233.54;-32.84;3.73;0.0;31.394;;;;;;95.0;59.0;3.0;95315;2014-11-08 13:56:28:688
0.4597;5.0565;6.742;-0.5533;5.4823;8.4762;0.0936;-0.8855;-1.4278;21.3;-28.9;16.6;213.91;-32.84;3.73;0.0;35.213;;;;;;95.0;59.0;3.0;95816;2014-11-08 13:56:29:189
0.4597;5.0565;6.742;-0.5533;5.4823;8.4762;0.0936;-0.8855;-1.4278;21.8;-27.9;17.4;214.23;-32.84;3.73;0.0;30.248;;;;;;95.0;59.0;3.0;96317;2014-11-08 13:56:29:690
0.4597;5.0565;6.742;-0.5533;5.4823;8.4762;0.0936;-0.8855;-1.4278;20.5;-24.0;23.8;214.79;-32.84;3.73;0.0;36.184;;;;;;95.0;59.0;3.0;96817;2014-11-08 13:56:30:190
0.4597;5.0565;6.742;-0.5533;5.4823;8.4762;0.0936;-0.8855;-1.4278;24.7;-26.6;11.3;222.76;-32.84;3.73;0.0;34.885;;;;;;95.0;59.0;3.0;97318;2014-11-08 13:56:30:691
0.4597;5.0565;6.742;-0.5533;5.4823;8.4762;0.0936;-0.8855;-1.4278;26.5;-26.7;6.9;227.03;-32.84;3.73;0.0;28.97;;;;;;95.0;59.0;3.0;97819;2014-11-08 13:56:31:192
0.4597;5.0565;6.742;-0.5533;5.4823;8.4762;0.0936;-0.8855;-1.4278;28.2;-26.1;9.5;228.58;-32.84;3.73;0.0;29.737;;;;;;95.0;59.0;3.0;98319;2014-11-08 13:56:31:692
0.4597;5.0565;6.742;-0.5533;5.4823;8.4762;0.0936;-0.8855;-1.4278;23.5;-31.9;-0.3;222.61;-32.84;3.73;0.0;35.24;;;;;;95.0;59.0;3.0;98820;2014-11-08 13:56:32:193
0.4597;5.0565;6.742;-0.5533;5.4823;8.4762;0.0936;-0.8855;-1.4278;25.6;-29.2;-10.3;231.39;-32.84;3.73;0.0;37.067;;;;;;95.0;59.0;3.0;99322;2014-11-08 13:56:32:695
0.4597;5.0565;6.742;-0.5533;5.4823;8.4762;0.0936;-0.8855;-1.4278;26.4;-27.3;-13.7;240.45;-32.84;3.73;0.0;28.68;;;;;;95.0;59.0;3.0;99822;2014-11-08 13:56:33:195
0.4597;5.0565;6.742;-0.5533;5.4823;8.4762;0.0936;-0.8855;-1.4278;18.4;-34.9;-5.7;227.63;-32.84;3.73;0.0;30.137;;;;;;95.0;59.0;3.0;100322;2014-11-08 13:56:33:695
0.4597;5.0565;6.742;-0.5533;5.4823;8.4762;0.0936;-0.8855;-1.4278;15.9;-33.6;-15.6;217.65;-32.84;3.73;0.0;43.968;;;;;;95.0;59.0;3.0;100822;2014-11-08 13:56:34:195
0.4597;5.0565;6.742;-0.5533;5.4823;8.4762;0.0936;-0.8855;-1.4278;21.0;-27.7;-21.9;236.07;-32.84;3.73;0.0;33.63;;;;;;95.0;59.0;3.0;101322;2014-11-08 13:56:34:695
0.4597;5.0565;6.742;-0.5533;5.4823;8.4762;0.0936;-0.8855;-1.4278;21.3;-33.0;-7.9;222.05;-32.84;3.73;0.0;32.501;;;;;;95.0;59.0;3.0;101822;2014-11-08 13:56:35:195
0.4597;5.0565;6.742;-0.5533;5.4823;8.4762;0.0936;-0.8855;-1.4278;17.3;-34.8;-11.7;215.95;-32.84;3.73;0.0;35.087;;;;;;95.0;59.0;3.0;102323;2014-11-08 13:56:35:696
0.4597;5.0565;6.742;-0.5533;5.4823;8.4762;0.0936;-0.8855;-1.4278;19.6;-32.7;-16.4;221.83;-32.84;3.73;0.0;32.94;;;;;;95.0;59.0;3.0;102824;2014-11-08 13:56:36:197
0.4597;5.0565;6.742;-0.5533;5.4823;8.4762;0.0936;-0.8855;-1.4278;27.6;-27.7;-13.0;240.22;-32.84;3.73;0.0;29.854;;;;;;95.0;59.0;3.0;103326;2014-11-08 13:56:36:699
0.4597;5.0565;6.742;-0.5533;5.4823;8.4762;0.0936;-0.8855;-1.4278;26.2;-29.9;1.0;226.33;-32.84;3.73;0.0;31.49;;;;;;95.0;59.0;3.0;103826;2014-11-08 13:56:37:199
0.4597;5.0565;6.742;-0.5533;5.4823;8.4762;0.0936;-0.8855;-1.4278;19.7;-35.4;-4.9;216.12;-32.84;3.73;0.0;40.906;;;;;;95.0;59.0;3.0;104326;2014-11-08 13:56:37:699
0.4597;5.0565;6.742;-0.5533;5.4823;8.4762;0.0936;-0.8855;-1.4278;26.6;-30.0;-8.4;232.98;-32.84;3.73;0.0;43.511;;;;;;95.0;59.0;3.0;104827;2014-11-08 13:56:38:200
0.4597;5.0565;6.742;-0.5533;5.4823;8.4762;0.0936;-0.8855;-1.4278;26.3;-30.0;-4.3;238.62;-32.84;3.73;0.0;33.75;;;;;;95.0;59.0;3.0;105327;2014-11-08 13:56:38:700
0.4597;5.0565;6.742;-0.5533;5.4823;8.4762;0.0936;-0.8855;-1.4278;16.4;-35.3;-8.9;212.68;-32.84;3.73;0.0;38.849;;;;;;95.0;59.0;3.0;105828;2014-11-08 13:56:39:201
0.4597;5.0565;6.742;-0.5533;5.4823;8.4762;0.0936;-0.8855;-1.4278;24.7;-30.0;-12.5;233.58;-32.84;3.73;0.0;33.529;;;;;;95.0;59.0;3.0;106328;2014-11-08 13:56:39:701
0.4597;5.0565;6.742;-0.5533;5.4823;8.4762;0.0936;-0.8855;-1.4278;26.7;-30.1;-2.6;229.77;-32.84;3.73;0.0;31.149;;;;;;95.0;59.0;3.0;106828;2014-11-08 13:56:40:201
0.4597;5.0565;6.742;-0.5533;5.4823;8.4762;0.0936;-0.8855;-1.4278;19.6;-34.7;-1.8;213.02;-32.84;3.73;0.0;42.439;;;;;;95.0;59.0;3.0;107328;2014-11-08 13:56:40:701
0.4597;5.0565;6.742;-0.5533;5.4823;8.4762;0.0936;-0.8855;-1.4278;28.7;-28.0;-6.4;236.0;-32.84;3.73;0.0;36.204;;;;;;95.0;59.0;3.0;107828;2014-11-08 13:56:41:201
0.4597;5.0565;6.742;-0.5533;5.4823;8.4762;0.0936;-0.8855;-1.4278;21.9;-32.6;3.6;228.01;-32.84;3.73;0.0;41.643;;;;;;95.0;59.0;3.0;108328;2014-11-08 13:56:41:701
0.4597;5.0565;6.742;-0.5533;5.4823;8.4762;0.0936;-0.8855;-1.4278;21.8;-33.2;-9.3;212.55;-32.84;3.73;0.0;42.208;;;;;;95.0;59.0;3.0;108828;2014-11-08 13:56:42:201
0.4597;5.0565;6.742;-0.5533;5.4823;8.4762;0.0936;-0.8855;-1.4278;23.4;-28.9;-18.6;238.57;-32.84;3.73;0.0;31.487;;;;;;95.0;59.0;3.0;109329;2014-11-08 13:56:42:702
0.4597;5.0565;6.742;-0.5533;5.4823;8.4762;0.0936;-0.8855;-1.4278;-2.5;-36.1;-13.9;172.71;-32.84;3.73;0.0;41.621;;;;;;95.0;59.0;3.0;109830;2014-11-08 13:56:43:203
0.4597;5.0565;6.742;-0.5533;5.4823;8.4762;0.0936;-0.8855;-1.4278;2.9;-29.6;-24.6;193.51;-32.84;3.73;0.0;42.35;;;;;;95.0;59.0;3.0;110330;2014-11-08 13:56:43:703
0.4597;5.0565;6.742;-0.5533;5.4823;8.4762;0.0936;-0.8855;-1.4278;-12.9;-33.2;-12.9;146.84;-32.84;3.73;0.0;41.721;;;;;;95.0;59.0;3.0;110831;2014-11-08 13:56:44:204
0.4597;5.0565;6.742;-0.5533;5.4823;8.4762;0.0936;-0.8855;-1.4278;-16.0;-28.7;-19.3;129.66;-32.84;3.73;0.0;41.67;;;;;;95.0;59.0;3.0;111333;2014-11-08 13:56:44:706
0.4597;5.0565;6.742;-0.5533;5.4823;8.4762;0.0936;-0.8855;-1.4278;-8.3;-27.4;-26.1;132.6;-32.84;3.73;0.0;41.727;;;;;;95.0;59.0;3.0;111833;2014-11-08 13:56:45:206
0.4597;5.0565;6.742;-0.5533;5.4823;8.4762;0.0936;-0.8855;-1.4278;-22.6;-28.4;-8.8;129.59;-32.84;3.73;0.0;42.219;;;;;;95.0;59.0;3.0;112333;2014-11-08 13:56:45:706
0.4597;5.0565;6.742;-0.5533;5.4823;8.4762;0.0936;-0.8855;-1.4278;-11.2;-27.6;-23.4;132.09;-32.84;3.73;0.0;45.667;;;;;;95.0;59.0;3.0;112836;2014-11-08 13:56:46:209
0.4597;5.0565;6.742;-0.5533;5.4823;8.4762;0.0936;-0.8855;-1.4278;-13.1;-29.6;-11.4;146.58;-32.84;3.73;0.0;37.366;;;;;;95.0;59.0;3.0;113339;2014-11-08 13:56:46:712
0.4597;5.0565;6.742;-0.5533;5.4823;8.4762;0.0936;-0.8855;-1.4278;-9.4;-28.5;-18.3;144.25;-32.84;3.73;0.0;44.741;;;;;;95.0;59.0;3.0;113840;2014-11-08 13:56:47:213
0.4597;5.0565;6.742;-0.5533;5.4823;8.4762;0.0936;-0.8855;-1.4278;-0.4;-26.6;-26.1;168.88;-32.84;3.73;0.0;38.404;;;;;;95.0;59.0;3.0;114340;2014-11-08 13:56:47:713
0.4597;5.0565;6.742;-0.5533;5.4823;8.4762;0.0936;-0.8855;-1.4278;-15.8;-29.3;-15.7;133.73;-32.84;3.73;0.0;41.203;;;;;;95.0;59.0;3.0;114840;2014-11-08 13:56:48:213
0.4597;5.0565;6.742;-0.5533;5.4823;8.4762;0.0936;-0.8855;-1.4278;-6.5;-27.9;-26.5;141.54;-32.84;3.73;0.0;42.622;;;;;;95.0;59.0;3.0;115341;2014-11-08 13:56:48:714
0.4597;5.0565;6.742;-0.5533;5.4823;8.4762;0.0936;-0.8855;-1.4278;-15.3;-31.4;-13.8;146.52;-32.84;3.73;0.0;33.222;;;;;;95.0;59.0;3.0;115841;2014-11-08 13:56:49:214
0.4597;5.0565;6.742;-0.5533;5.4823;8.4762;0.0936;-0.8855;-1.4278;-20.6;-29.2;-11.5;127.84;-32.84;3.73;0.0;45.086;;;;;;95.0;59.0;3.0;116341;2014-11-08 13:56:49:714
0.4597;5.0565;6.742;-0.5533;5.4823;8.4762;0.0936;-0.8855;-1.4278;-20.4;-30.5;-6.5;138.08;-32.84;3.73;0.0;33.376;;;;;;95.0;59.0;3.0;116842;2014-11-08 13:56:50:215
0.4597;5.0565;6.742;-0.5533;5.4823;8.4762;0.0936;-0.8855;-1.4278;-28.7;-20.4;9.3;128.68;-32.84;3.73;0.0;44.636;;;;;;95.0;59.0;3.0;117342;2014-11-08 13:56:50:715
0.4597;5.0565;6.742;-0.5533;5.4823;8.4762;0.0936;-0.8855;-1.4278;-21.1;-30.2;-4.2;135.96;-32.84;3.73;0.0;44.79;;;;;;95.0;59.0;3.0;117842;2014-11-08 13:56:51:215
0.4597;5.0565;6.742;-0.5533;5.4823;8.4762;0.0936;-0.8855;-1.4278;-29.7;-16.5;11.3;124.99;-32.84;3.73;0.0;44.026;;;;;;95.0;59.0;3.0;118342;2014-11-08 13:56:51:715
0.4597;5.0565;6.742;-0.5533;5.4823;8.4762;0.0936;-0.8855;-1.4278;-25.8;-25.6;-6.1;128.09;-32.84;3.73;0.0;44.966;;;;;;95.0;59.0;3.0;118843;2014-11-08 13:56:52:216
0.4597;5.0565;6.742;-0.5533;5.4823;8.4762;0.0936;-0.8855;-1.4278;-24.2;-27.8;-5.5;135.36;-32.84;3.73;0.0;46.278;;;;;;95.0;59.0;3.0;119343;2014-11-08 13:56:52:716
0.4597;5.0565;6.742;-0.5533;5.4823;8.4762;0.0936;-0.8855;-1.4278;-25.9;-24.9;3.6;133.16;-32.84;3.73;0.0;47.868;;;;;;95.0;59.0;3.0;119843;2014-11-08 13:56:53:216
0.4597;5.0565;6.742;-0.5533;5.4823;8.4762;0.0936;-0.8855;-1.4278;3.1;-23.3;-30.0;128.59;-32.84;3.73;0.0;43.199;;;;;;95.0;59.0;3.0;120344;2014-11-08 13:56:53:717
0.4597;5.0565;6.742;-0.5533;5.4823;8.4762;0.0936;-0.8855;-1.4278;8.3;-34.5;-12.4;209.56;-32.84;3.73;0.0;38.777;;;;;;95.0;59.0;3.0;120845;2014-11-08 13:56:54:218
0.4597;5.0565;6.742;-0.5533;5.4823;8.4762;0.0936;-0.8855;-1.4278;6.8;-31.8;-21.4;200.19;-32.84;3.73;0.0;40.488;;;;;;95.0;59.0;3.0;121346;2014-11-08 13:56:54:719
0.4597;5.0565;6.742;-0.5533;5.4823;8.4762;0.0936;-0.8855;-1.4278;5.6;-23.5;-29.2;230.16;-32.84;3.73;0.0;38.465;;;;;;95.0;59.0;3.0;121846;2014-11-08 13:56:55:219
0.4597;5.0565;6.742;-0.5533;5.4823;8.4762;0.0936;-0.8855;-1.4278;-13.4;-28.6;-16.8;155.45;-32.84;3.73;0.0;42.0;;;;;;95.0;59.0;3.0;122346;2014-11-08 13:56:55:719
0.4597;5.0565;6.742;-0.5533;5.4823;8.4762;0.0936;-0.8855;-1.4278;-9.6;-24.0;-25.0;121.93;-32.84;3.73;0.0;42.073;;;;;;95.0;59.0;3.0;122846;2014-11-08 13:56:56:219
0.4597;5.0565;6.742;-0.5533;5.4823;8.4762;0.0936;-0.8855;-1.4278;9.4;-22.1;-27.7;247.16;-32.84;3.73;0.0;37.947;;;;;;95.0;59.0;3.0;123346;2014-11-08 13:56:56:719
0.4597;5.0565;6.742;-0.5533;5.4823;8.4762;0.0936;-0.8855;-1.4278;19.4;-26.4;-15.9;234.02;-32.84;3.73;0.0;30.197;;;;;;95.0;59.0;3.0;123847;2014-11-08 13:56:57:220
0.4597;5.0565;6.742;-0.5533;5.4823;8.4762;0.0936;-0.8855;-1.4278;20.6;-28.1;-7.8;227.91;-32.84;3.73;0.0;26.1;;;;;;95.0;59.0;3.0;124347;2014-11-08 13:56:57:720
0.4597;5.0565;6.742;-0.5533;5.4823;8.4762;0.0936;-0.8855;-1.4278;24.9;-25.9;0.8;229.6;-32.84;3.73;0.0;33.216;;;;;;95.0;59.0;3.0;124848;2014-11-08 13:56:58:221
0.4597;5.0565;6.742;-0.5533;5.4823;8.4762;0.0936;-0.8855;-1.4278;23.5;-23.4;12.1;223.09;-32.84;3.73;0.0;29.169;;;;;;95.0;59.0;3.0;125348;2014-11-08 13:56:58:721
0.4597;5.0565;6.742;-0.5533;5.4823;8.4762;0.0936;-0.8855;-1.4278;24.8;-15.8;10.4;234.93;-32.84;3.73;0.0;26.887;;;;;;95.0;59.0;3.0;125849;2014-11-08 13:56:59:222
0.4597;5.0565;6.742;-0.5533;5.4823;8.4762;0.0936;-0.8855;-1.4278;20.2;-20.9;-8.8;238.08;-32.84;3.73;0.0;33.647;;;;;;95.0;59.0;3.0;126350;2014-11-08 13:56:59:723
0.4597;5.0565;6.742;-0.5533;5.4823;8.4762;0.0936;-0.8855;-1.4278;0.4;-18.0;-25.5;134.41;-32.84;3.73;0.0;34.214;;;;;;95.0;59.0;3.0;126850;2014-11-08 13:57:00:223
0.4597;5.0565;6.742;-0.5533;5.4823;8.4762;0.0936;-0.8855;-1.4278;-0.9;-20.3;-21.2;156.63;-32.84;3.73;0.0;26.628;;;;;;95.0;59.0;3.0;127350;2014-11-08 13:57:00:723
0.4597;5.0565;6.742;-0.5533;5.4823;8.4762;0.0936;-0.8855;-1.4278;-1.5;-21.2;-22.5;157.17;-32.84;3.73;0.0;27.63;;;;;;95.0;59.0;3.0;127850;2014-11-08 13:57:01:223
0.4597;5.0565;6.742;-0.5533;5.4823;8.4762;0.0936;-0.8855;-1.4278;-1.6;-19.8;-25.1;146.38;-32.84;3.73;0.0;25.921;;;;;;95.0;59.0;3.0;128351;2014-11-08 13:57:01:724
0.4597;5.0565;6.742;-0.5533;5.4823;8.4762;0.0936;-0.8855;-1.4278;-1.6;-18.2;-26.4;106.96;-32.84;3.73;0.0;27.349;;;;;;95.0;59.0;3.0;128852;2014-11-08 13:57:02:225
0.4597;5.0565;6.742;-0.5533;5.4823;8.4762;0.0936;-0.8855;-1.4278;-0.8;-17.4;-26.9;83.96;-32.84;3.73;0.0;40.32;;;;;;95.0;59.0;3.0;129353;2014-11-08 13:57:02:726
0.4597;5.0565;6.742;-0.5533;5.4823;8.4762;0.0936;-0.8855;-1.4278;-0.4;-17.2;-27.1;83.96;-32.84;3.73;0.0;30.123;;;;;;95.0;59.0;3.0;129854;2014-11-08 13:57:03:227
0.4597;5.0565;6.742;-0.5533;5.4823;8.4762;0.0936;-0.8855;-1.4278;8.1;-17.8;-26.1;263.01;-32.84;3.73;0.0;26.477;;;;;;95.0;59.0;3.0;130354;2014-11-08 13:57:03:727
0.4597;5.0565;6.742;-0.5533;5.4823;8.4762;0.0936;-0.8855;-1.4278;8.1;-18.7;-24.6;251.28;-32.84;3.73;0.0;31.964;;;;;;95.0;59.0;3.0;130854;2014-11-08 13:57:04:227
0.4597;5.0565;6.742;-0.5533;5.4823;8.4762;0.0936;-0.8855;-1.4278;8.2;-19.3;-23.9;247.23;-32.84;3.73;0.0;29.864;;;;;;95.0;59.0;3.0;131354;2014-11-08 13:57:04:727
0.4597;5.0565;6.742;-0.5533;5.4823;8.4762;0.0936;-0.8855;-1.4278;7.6;-19.3;-24.1;247.23;-32.84;3.73;0.0;32.767;;;;;;95.0;59.0;3.0;131854;2014-11-08 13:57:05:227
0.4597;5.0565;6.742;-0.5533;5.4823;8.4762;0.0936;-0.8855;-1.4278;6.3;-19.1;-24.3;238.0;-32.84;3.73;0.0;38.082;;;;;;95.0;59.0;3.0;132354;2014-11-08 13:57:05:727
0.4597;5.0565;6.742;-0.5533;5.4823;8.4762;0.0936;-0.8855;-1.4278;5.4;-18.9;-24.7;242.97;-32.84;3.73;0.0;31.008;;;;;;95.0;59.0;3.0;132855;2014-11-08 13:57:06:228
0.4597;5.0565;6.742;-0.5533;5.4823;8.4762;0.0936;-0.8855;-1.4278;3.5;-18.5;-25.3;238.39;-32.84;3.73;0.0;31.178;;;;;;95.0;59.0;3.0;133355;2014-11-08 13:57:06:728
0.4597;5.0565;6.742;-0.5533;5.4823;8.4762;0.0936;-0.8855;-1.4278;2.3;-18.9;-25.3;188.83;-32.84;3.73;0.0;58.27;;;;;;95.0;59.0;3.0;133855;2014-11-08 13:57:07:228
0.4597;5.0565;6.742;-0.5533;5.4823;8.4762;0.0936;-0.8855;-1.4278;-6.8;-15.4;-25.3;111.54;-32.84;3.73;0.0;45.415;;;;;;95.0;59.0;3.0;134355;2014-11-08 13:57:07:728
0.4597;5.0565;6.742;-0.5533;5.4823;8.4762;0.0936;-0.8855;-1.4278;24.0;-1.8;-23.7;298.5;-32.84;3.73;0.4;32.959;;;;;;95.0;59.0;3.0;134855;2014-11-08 13:57:08:228
0.4597;5.0565;6.742;-0.5533;5.4823;8.4762;0.0936;-0.8855;-1.4278;-5.7;18.3;-25.5;14.99;-32.84;3.73;0.4;27.181;;;;;;95.0;59.0;3.0;135357;2014-11-08 13:57:08:730
0.4597;5.0565;6.742;-0.5533;5.4823;8.4762;0.0936;-0.8855;-1.4278;-16.9;14.8;-23.6;36.55;-32.84;3.73;0.4;26.199;;;;;;95.0;59.0;3.0;136153;2014-11-08 13:57:09:526
1.0726;1.8387;9.0404;3.8949;2.3791;8.9127;-2.8224;-0.5404;0.1277;-25.4;6.9;-19.2;279.58;9.78;-74.14;0.4;36.22;;;;;;91.4;59.0;3.0;136684;2014-11-08 13:57:10:057
0.1532;2.2984;9.1936;0.0578;2.0876;9.0079;0.0954;0.2109;0.1857;-24.3;7.4;-19.8;61.05;-13.27;-2.21;0.4;60.688;;;;;;91.4;59.0;3.0;137184;2014-11-08 13:57:10:557
-1.0726;3.9839;7.8146;0.2508;2.6342;9.1923;-1.3234;1.3497;-1.3777;-20.3;6.9;-23.9;55.69;-14.94;-1.84;0.4;25.372;;;;;;91.4;59.0;3.0;137684;2014-11-08 13:57:11:057
-1.379;2.9113;7.5081;-0.4804;2.7728;9.0251;-0.8986;0.1385;-1.517;-21.5;6.7;-23.1;57.25;-22.69;4.6;0.4;26.527;;;;;;91.4;59.0;3.0;138184;2014-11-08 13:57:11:557
0.1532;0.7661;9.9598;0.0747;0.7602;9.7176;0.0785;0.0059;0.2422;-23.6;6.7;-20.9;69.65;-6.18;1.8;0.4;25.239;;;;;;91.4;59.0;3.0;138695;2014-11-08 13:57:12:068
-0.3065;4.2904;8.7339;-0.4115;3.0161;8.8375;0.1051;1.2743;-0.1036;-22.6;1.3;-23.3;75.49;-12.16;-0.69;0.4;25.99;;;;;;91.4;59.0;3.0;139195;2014-11-08 13:57:12:568
-0.6129;4.75;9.0404;-0.8672;4.7743;8.3488;-0.3586;0.129;-0.6874;-21.8;0.4;-24.0;66.86;-29.18;6.26;0.4;27.107;;;;;;91.4;59.0;3.0;139699;2014-11-08 13:57:13:072
-0.9194;3.6774;8.7339;-1.195;4.585;8.2834;0.2756;-0.7544;0.2973;-21.2;0.3;-24.5;66.62;-29.68;7.7;0.4;24.742;;;;;;91.4;59.0;3.0;140200;2014-11-08 13:57:13:573
-0.6129;2.6049;9.0404;-0.774;3.4056;8.8323;0.3143;-0.6475;0.2081;-21.2;4.1;-24.3;60.47;-23.68;6.08;0.4;25.937;;;;;;91.4;59.0;3.0;140700;2014-11-08 13:57:14:073