sep=;
ACCELEROMETER X (m/s²);ACCELEROMETER Y (m/s²);ACCELEROMETER Z (m/s²);GRAVITY X (m/s²);GRAVITY Y (m/s²);GRAVITY Z (m/s²);LINEAR ACCELERATION X (m/s²);LINEAR ACCELERATION Y (m/s²);LINEAR ACCELERATION Z (m/s²);MAGNETIC FIELD X (μT);MAGNETIC FIELD Y (μT);MAGNETIC FIELD Z (μT);ORIENTATION X (°);ORIENTATION Y (°);ORIENTATION Z (°);PROXIMITY (i);SOUND LEVEL (dB);LOCATION Latitude : ;LOCATION Longitude : ;LOCATION Altitude ( m);LOCATION Speed ( Kmh);LOCATION Accuracy ( m);Temperature (F);Level (%);Voltage (Volt);Time since start in ms ;YYYY-MO-DD HH-MI-SS_SSS
0.0;7.3549;5.2097;0.1123;6.7714;7.1081;-0.1123;0.5835;-1.8984;14.7;-35.3;-7.6;219.89;-47.13;6.77;0.4;23.615;;;;;;86.0;59.0;3.0;24;2014-11-08 14:02:57:679
0.9194;6.5888;8.121;-0.0914;6.2784;7.2053;1.0107;0.3104;0.9157;14.7;-35.1;-8.4;215.94;-41.89;-1.77;0.4;23.855;;;;;;86.0;59.0;3.0;549;2014-11-08 14:02:58:204
0.1532;6.4355;7.8146;0.607;6.2894;7.8944;-0.607;-0.4668;-0.6927;8.8;-35.5;-8.7;207.96;-38.86;-5.81;0.4;24.456;;;;;;86.0;59.0;3.0;1049;2014-11-08 14:02:58:704
3.6774;11.1856;0.3065;0.6312;7.1082;4.8122;2.4333;1.779;-5.1186;4.2;-34.6;20.0;186.88;-43.39;2.05;0.4;35.331;;;;;;86.0;59.0;3.0;1549;2014-11-08 14:02:59:204
2.6049;10.2662;-2.4516;3.0239;7.4352;-1.8622;0.0406;2.831;-2.1217;7.4;-28.3;23.9;104.18;-64.47;-121.63;0.0;63.694;;;;;;86.0;59.0;3.0;2049;2014-11-08 14:02:59:704
3.2178;10.4194;0.7661;3.6205;9.8271;-0.4482;-0.4028;0.5924;1.2143;6.2;-31.8;18.4;128.22;-69.63;-97.06;0.0;34.131;;;;;;86.0;59.0;3.0;2550;2014-11-08 14:03:00:205
1.6855;10.4194;0.6129;2.6967;10.168;1.1325;-1.0112;0.2514;-0.5195;8.0;-31.1;20.2;142.18;-68.54;-79.61;0.0;41.812;;;;;;86.0;59.0;3.0;3054;2014-11-08 14:03:00:709
2.1452;8.8872;0.4597;1.6441;10.1432;1.2111;0.501;-1.256;-0.7514;4.3;-32.2;18.8;150.38;-79.4;-49.74;0.0;45.976;;;;;;86.0;59.0;3.0;3577;2014-11-08 14:03:01:232
3.6774;9.8065;-0.3065;2.6238;10.2705;0.9298;1.0536;-0.464;-1.2362;-2.2;-32.0;19.6;123.66;-74.84;-70.49;0.0;37.292;;;;;;86.0;59.0;3.0;4079;2014-11-08 14:03:01:734
0.6129;6.8952;4.1371;1.6516;9.9543;1.4854;-1.0387;-3.059;2.6517;0.0;-37.3;1.7;147.25;-73.99;-67.66;0.4;31.911;;;;;;86.0;59.0;3.0;4579;2014-11-08 14:03:02:234
-0.3065;5.8226;7.3549;-0.8924;6.7261;6.3978;0.5859;-0.9035;0.9571;-1.3;-36.8;-9.6;172.62;-54.96;4.04;0.4;26.617;;;;;;86.0;59.0;3.0;5080;2014-11-08 14:03:02:735
-0.1532;5.9759;8.121;-0.5049;5.6767;7.7724;1.1178;0.4524;-0.1111;-1.8;-37.6;-11.5;173.27;-36.58;4.42;0.4;24.376;;;;;;86.0;59.0;3.0;5590;2014-11-08 14:03:03:245
-0.4597;3.6774;9.5001;-0.3787;5.6982;7.7673;0.5319;0.7373;-1.1786;-2.0;-37.1;-11.2;173.82;-36.23;2.79;0.4;24.006;;;;;;86.0;59.0;3.0;6090;2014-11-08 14:03:03:745
-0.4597;3.6774;9.5001;-0.3787;5.6982;7.7673;0.5319;0.7373;-1.1786;10.7;-29.1;24.0;198.08;-36.23;2.79;0.4;25.303;;;;;;86.0;59.0;3.0;6590;2014-11-08 14:03:04:245
-0.4597;3.6774;9.5001;-0.3787;5.6982;7.7673;0.5319;0.7373;-1.1786;14.2;-27.2;23.5;203.09;-36.23;2.79;0.0;47.107;;;;;;86.0;59.0;3.0;7091;2014-11-08 14:03:04:746
-0.4597;3.6774;9.5001;-0.3787;5.6982;7.7673;0.5319;0.7373;-1.1786;15.2;-24.0;20.4;198.6;-36.23;2.79;0.0;48.253;;;;;;86.0;59.0;3.0;7591;2014-11-08 14:03:05:246
-0.4597;3.6774;9.5001;-0.3787;5.6982;7.7673;0.5319;0.7373;-1.1786;11.0;-23.0;23.9;200.56;-36.23;2.79;0.0;46.351;;;;;;86.0;59.0;3.0;8091;2014-11-08 14:03:05:746
-0.4597;3.6774;9.5001;-0.3787;5.6982;7.7673;0.5319;0.7373;-1.1786;18.3;-20.8;22.8;206.93;-36.23;2.79;0.0;37.984;;;;;;86.0;59.0;3.0;8591;2014-11-08 14:03:06:246
-0.4597;3.6774;9.5001;-0.3787;5.6982;7.7673;0.5319;0.7373;-1.1786;4.4;-25.7;22.2;188.51;-36.23;2.79;0.0;57.685;;;;;;86.0;59.0;3.0;9092;2014-11-08 14:03:06:747
-0.4597;3.6774;9.5001;-0.3787;5.6982;7.7673;0.5319;0.7373;-1.1786;3.2;-29.2;16.3;188.24;-36.23;2.79;0.0;39.91;;;;;;86.0;59.0;3.0;9592;2014-11-08 14:03:07:247
-0.4597;3.6774;9.5001;-0.3787;5.6982;7.7673;0.5319;0.7373;-1.1786;8.3;-29.2;10.4;196.26;-36.23;2.79;0.0;32.52;;;;;;86.0;59.0;3.0;10093;2014-11-08 14:03:07:748
-0.4597;3.6774;9.5001;-0.3787;5.6982;7.7673;0.5319;0.7373;-1.1786;9.9;-28.1;13.2;198.79;-36.23;2.79;0.0;28.178;;;;;;86.0;59.0;3.0;10594;2014-11-08 14:03:08:249
-0.4597;3.6774;9.5001;-0.3787;5.6982;7.7673;0.5319;0.7373;-1.1786;9.6;-25.0;17.1;199.88;-36.23;2.79;0.0;26.846;;;;;;86.0;59.0;3.0;11094;2014-11-08 14:03:08:749
-0.4597;3.6774;9.5001;-0.3787;5.6982;7.7673;0.5319;0.7373;-1.1786;3.3;-25.4;19.8;193.9;-36.23;2.79;0.0;30.721;;;;;;86.0;59.0;3.0;11594;2014-11-08 14:03:09:249
-0.4597;3.6774;9.5001;-0.3787;5.6982;7.7673;0.5319;0.7373;-1.1786;-16.4;-24.7;15.6;159.93;-36.23;2.79;0.0;32.84;;;;;;86.0;59.0;3.0;12094;2014-11-08 14:03:09:749
-0.4597;3.6774;9.5001;-0.3787;5.6982;7.7673;0.5319;0.7373;-1.1786;-17.9;-23.1;14.7;146.23;-36.23;2.79;0.0;33.736;;;;;;86.0;59.0;3.0;12594;2014-11-08 14:03:10:249
-0.4597;3.6774;9.5001;-0.3787;5.6982;7.7673;0.5319;0.7373;-1.1786;-22.9;-21.3;10.7;137.04;-36.23;2.79;0.0;35.499;;;;;;86.0;59.0;3.0;13094;2014-11-08 14:03:10:749
-0.4597;3.6774;9.5001;-0.3787;5.6982;7.7673;0.5319;0.7373;-1.1786;-23.4;-20.2;10.3;134.27;-36.23;2.79;0.0;31.84;;;;;;86.0;59.0;3.0;13594;2014-11-08 14:03:11:249
-0.4597;3.6774;9.5001;-0.3787;5.6982;7.7673;0.5319;0.7373;-1.1786;-18.9;-19.8;15.7;145.14;-36.23;2.79;0.0;31.588;;;;;;86.0;59.0;3.0;14094;2014-11-08 14:03:11:749
-0.4597;3.6774;9.5001;-0.3787;5.6982;7.7673;0.5319;0.7373;-1.1786;-11.7;-20.0;19.4;148.79;-36.23;2.79;0.0;29.147;;;;;;86.0;59.0;3.0;14595;2014-11-08 14:03:12:250
-0.4597;3.6774;9.5001;-0.3787;5.6982;7.7673;0.5319;0.7373;-1.1786;9.6;-27.0;17.7;198.69;-36.23;2.79;0.0;28.691;;;;;;86.0;59.0;3.0;15095;2014-11-08 14:03:12:750
-0.4597;3.6774;9.5001;-0.3787;5.6982;7.7673;0.5319;0.7373;-1.1786;6.5;-25.7;19.5;195.59;-36.23;2.79;0.0;28.903;;;;;;86.0;59.0;3.0;15595;2014-11-08 14:03:13:250
-0.4597;3.6774;9.5001;-0.3787;5.6982;7.7673;0.5319;0.7373;-1.1786;4.7;-26.0;21.1;190.26;-36.23;2.79;0.0;25.518;;;;;;86.0;59.0;3.0;16096;2014-11-08 14:03:13:751
-0.4597;3.6774;9.5001;-0.3787;5.6982;7.7673;0.5319;0.7373;-1.1786;4.2;-25.3;21.4;188.79;-36.23;2.79;0.0;25.025;;;;;;86.0;59.0;3.0;16596;2014-11-08 14:03:14:251
-0.4597;3.6774;9.5001;-0.3787;5.6982;7.7673;0.5319;0.7373;-1.1786;4.2;-24.5;22.3;188.93;-36.23;2.79;0.0;24.839;;;;;;86.0;59.0;3.0;17097;2014-11-08 14:03:14:752
-0.4597;3.6774;9.5001;-0.3787;5.6982;7.7673;0.5319;0.7373;-1.1786;5.3;-24.5;22.5;190.56;-36.23;2.79;0.0;24.62;;;;;;86.0;59.0;3.0;17598;2014-11-08 14:03:15:253
-0.4597;3.6774;9.5001;-0.3787;5.6982;7.7673;0.5319;0.7373;-1.1786;6.1;-24.3;22.3;192.38;-36.23;2.79;0.0;27.795;;;;;;86.0;59.0;3.0;18098;2014-11-08 14:03:15:753
-0.4597;3.6774;9.5001;-0.3787;5.6982;7.7673;0.5319;0.7373;-1.1786;6.1;-24.3;22.3;192.38;-36.23;2.79;0.0;24.929;;;;;;86.0;59.0;3.0;18598;2014-11-08 14:03:16:253
-0.4597;3.6774;9.5001;-0.3787;5.6982;7.7673;0.5319;0.7373;-1.1786;6.3;-24.3;22.1;192.38;-36.23;2.79;0.0;24.937;;;;;;86.0;59.0;3.0;19098;2014-11-08 14:03:16:753
-0.4597;3.6774;9.5001;-0.3787;5.6982;7.7673;0.5319;0.7373;-1.1786;6.7;-24.3;22.1;194.08;-36.23;2.79;0.0;25.415;;;;;;86.0;59.0;3.0;19598;2014-11-08 14:03:17:253
-0.4597;3.6774;9.5001;-0.3787;5.6982;7.7673;0.5319;0.7373;-1.1786;6.5;-24.3;22.1;194.08;-36.23;2.79;0.0;28.202;;;;;;86.0;59.0;3.0;20098;2014-11-08 14:03:17:753
-0.4597;3.6774;9.5001;-0.3787;5.6982;7.7673;0.5319;0.7373;-1.1786;6.5;-24.3;22.3;194.08;-36.23;2.79;0.0;25.422;;;;;;86.0;59.0;3.0;20598;2014-11-08 14:03:18:253
-0.4597;3.6774;9.5001;-0.3787;5.6982;7.7673;0.5319;0.7373;-1.1786;7.3;-23.9;22.5;193.92;-36.23;2.79;0.0;25.327;;;;;;86.0;59.0;3.0;21098;2014-11-08 14:03:18:753
-0.4597;3.6774;9.5001;-0.3787;5.6982;7.7673;0.5319;0.7373;-1.1786;7.7;-23.9;22.5;195.57;-36.23;2.79;0.0;29.428;;;;;;86.0;59.0;3.0;21598;2014-11-08 14:03:19:253
-0.4597;3.6774;9.5001;-0.3787;5.6982;7.7673;0.5319;0.7373;-1.1786;7.1;-23.9;22.5;193.92;-36.23;2.79;0.0;26.626;;;;;;86.0;59.0;3.0;22098;2014-11-08 14:03:19:753
-0.4597;3.6774;9.5001;-0.3787;5.6982;7.7673;0.5319;0.7373;-1.1786;6.0;-23.7;22.7;192.25;-36.23;2.79;0.0;32.332;;;;;;86.0;59.0;3.0;22598;2014-11-08 14:03:20:253
-0.4597;3.6774;9.5001;-0.3787;5.6982;7.7673;0.5319;0.7373;-1.1786;1.0;-23.3;23.3;183.78;-36.23;2.79;0.0;27.043;;;;;;86.0;59.0;3.0;23098;2014-11-08 14:03:20:753
-0.4597;3.6774;9.5001;-0.3787;5.6982;7.7673;0.5319;0.7373;-1.1786;0.3;-22.9;23.5;182.05;-36.23;2.79;0.0;27.906;;;;;;86.0;59.0;3.0;23598;2014-11-08 14:03:21:253
-0.4597;3.6774;9.5001;-0.3787;5.6982;7.7673;0.5319;0.7373;-1.1786;-0.1;-23.3;23.3;182.0;-36.23;2.79;0.0;27.031;;;;;;86.0;59.0;3.0;24099;2014-11-08 14:03:21:754
-0.4597;3.6774;9.5001;-0.3787;5.6982;7.7673;0.5319;0.7373;-1.1786;2.6;-23.7;22.9;185.42;-36.23;2.79;0.0;28.836;;;;;;86.0;59.0;3.0;24599;2014-11-08 14:03:22:254
-0.4597;3.6774;9.5001;-0.3787;5.6982;7.7673;0.5319;0.7373;-1.1786;3.2;-23.9;22.9;187.14;-36.23;2.79;0.0;29.279;;;;;;86.0;59.0;3.0;25100;2014-11-08 14:03:22:755
-0.4597;3.6774;9.5001;-0.3787;5.6982;7.7673;0.5319;0.7373;-1.1786;3.9;-23.7;23.1;188.86;-36.23;2.79;0.0;28.187;;;;;;86.0;59.0;3.0;25601;2014-11-08 14:03:23:256
-0.4597;3.6774;9.5001;-0.3787;5.6982;7.7673;0.5319;0.7373;-1.1786;3.9;-23.7;23.1;188.86;-36.23;2.79;0.0;30.648;;;;;;86.0;59.0;3.0;26101;2014-11-08 14:03:23:756
-0.4597;3.6774;9.5001;-0.3787;5.6982;7.7673;0.5319;0.7373;-1.1786;4.5;-25.2;21.1;190.51;-36.23;2.79;0.0;29.651;;;;;;86.0;59.0;3.0;26601;2014-11-08 14:03:24:256
-0.4597;3.6774;9.5001;-0.3787;5.6982;7.7673;0.5319;0.7373;-1.1786;3.0;-25.4;21.1;187.05;-36.23;2.79;0.0;29.839;;;;;;86.0;59.0;3.0;27102;2014-11-08 14:03:24:757
-0.4597;3.6774;9.5001;-0.3787;5.6982;7.7673;0.5319;0.7373;-1.1786;2.4;-25.0;21.6;187.05;-36.23;2.79;0.0;27.399;;;;;;86.0;59.0;3.0;27602;2014-11-08 14:03:25:257
-0.4597;3.6774;9.5001;-0.3787;5.6982;7.7673;0.5319;0.7373;-1.1786;3.3;-24.4;22.2;187.19;-36.23;2.79;0.0;27.924;;;;;;86.0;59.0;3.0;28102;2014-11-08 14:03:25:757
-0.4597;3.6774;9.5001;-0.3787;5.6982;7.7673;0.5319;0.7373;-1.1786;4.2;-24.0;22.6;188.86;-36.23;2.79;0.0;31.804;;;;;;86.0;59.0;3.0;28602;2014-11-08 14:03:26:257
-0.4597;3.6774;9.5001;-0.3787;5.6982;7.7673;0.5319;0.7373;-1.1786;4.6;-23.8;23.0;190.56;-36.23;2.79;0.0;29.133;;;;;;86.0;59.0;3.0;29102;2014-11-08 14:03:26:757
-0.4597;3.6774;9.5001;-0.3787;5.6982;7.7673;0.5319;0.7373;-1.1786;4.8;-23.4;23.2;190.56;-36.23;2.79;0.0;28.976;;;;;;86.0;59.0;3.0;29603;2014-11-08 14:03:27:258
-0.4597;3.6774;9.5001;-0.3787;5.6982;7.7673;0.5319;0.7373;-1.1786;9.0;-21.6;24.1;197.79;-36.23;2.79;0.0;38.351;;;;;;86.0;59.0;3.0;30104;2014-11-08 14:03:27:759
-0.4597;3.6774;9.5001;-0.3787;5.6982;7.7673;0.5319;0.7373;-1.1786;9.2;-20.5;25.1;197.99;-36.23;2.79;0.0;26.978;;;;;;86.0;59.0;3.0;30604;2014-11-08 14:03:28:259
-0.4597;3.6774;9.5001;-0.3787;5.6982;7.7673;0.5319;0.7373;-1.1786;9.6;-20.1;25.5;199.84;-36.23;2.79;0.0;26.855;;;;;;86.0;59.0;3.0;31104;2014-11-08 14:03:28:759
-0.4597;3.6774;9.5001;-0.3787;5.6982;7.7673;0.5319;0.7373;-1.1786;9.6;-20.1;25.3;199.84;-36.23;2.79;0.0;25.736;;;;;;86.0;59.0;3.0;31604;2014-11-08 14:03:29:259
-0.4597;3.6774;9.5001;-0.3787;5.6982;7.7673;0.5319;0.7373;-1.1786;9.8;-20.1;25.3;200.11;-36.23;2.79;0.0;26.339;;;;;;86.0;59.0;3.0;32104;2014-11-08 14:03:29:759
-0.4597;3.6774;9.5001;-0.3787;5.6982;7.7673;0.5319;0.7373;-1.1786;10.0;-20.1;25.3;200.11;-36.23;2.79;0.0;26.806;;;;;;86.0;59.0;3.0;32605;2014-11-08 14:03:30:260
-0.4597;3.6774;9.5001;-0.3787;5.6982;7.7673;0.5319;0.7373;-1.1786;10.0;-19.9;25.5;199.84;-36.23;2.79;0.0;30.258;;;;;;86.0;59.0;3.0;33105;2014-11-08 14:03:30:760
-0.4597;3.6774;9.5001;-0.3787;5.6982;7.7673;0.5319;0.7373;-1.1786;10.2;-19.7;25.5;199.84;-36.23;2.79;0.0;26.805;;;;;;86.0;59.0;3.0;33605;2014-11-08 14:03:31:260
-0.4597;3.6774;9.5001;-0.3787;5.6982;7.7673;0.5319;0.7373;-1.1786;10.4;-19.9;25.5;199.84;-36.23;2.79;0.0;28.806;;;;;;86.0;59.0;3.0;34105;2014-11-08 14:03:31:760
-0.4597;3.6774;9.5001;-0.3787;5.6982;7.7673;0.5319;0.7373;-1.1786;10.4;-20.5;25.1;200.11;-36.23;2.79;0.0;32.0;;;;;;86.0;59.0;3.0;34605;2014-11-08 14:03:32:260
-0.4597;3.6774;9.5001;-0.3787;5.6982;7.7673;0.5319;0.7373;-1.1786;6.1;-20.9;24.7;192.88;-36.23;2.79;0.0;33.649;;;;;;86.0;59.0;3.0;35105;2014-11-08 14:03:32:760
-0.4597;3.6774;9.5001;-0.3787;5.6982;7.7673;0.5319;0.7373;-1.1786;-12.5;-21.8;19.1;165.3;-36.23;2.79;0.0;40.338;;;;;;86.0;59.0;3.0;35605;2014-11-08 14:03:33:260
-0.4597;3.6774;9.5001;-0.3787;5.6982;7.7673;0.5319;0.7373;-1.1786;-22.1;-22.0;9.0;137.73;-36.23;2.79;0.0;34.725;;;;;;86.0;59.0;3.0;36105;2014-11-08 14:03:33:760
-0.4597;3.6774;9.5001;-0.3787;5.6982;7.7673;0.5319;0.7373;-1.1786;-24.8;-21.4;4.8;134.88;-36.23;2.79;0.0;33.542;;;;;;86.0;59.0;3.0;36605;2014-11-08 14:03:34:260
-0.4597;3.6774;9.5001;-0.3787;5.6982;7.7673;0.5319;0.7373;-1.1786;-25.2;-20.5;4.2;127.79;-36.23;2.79;0.0;35.836;;;;;;86.0;59.0;3.0;37105;2014-11-08 14:03:34:760
-0.4597;3.6774;9.5001;-0.3787;5.6982;7.7673;0.5319;0.7373;-1.1786;-25.5;-20.1;8.8;130.43;-36.23;2.79;0.0;32.666;;;;;;86.0;59.0;3.0;37605;2014-11-08 14:03:35:260
-0.4597;3.6774;9.5001;-0.3787;5.6982;7.7673;0.5319;0.7373;-1.1786;-25.3;-21.1;7.0;131.5;-36.23;2.79;0.0;30.53;;;;;;86.0;59.0;3.0;38105;2014-11-08 14:03:35:760
-0.4597;3.6774;9.5001;-0.3787;5.6982;7.7673;0.5319;0.7373;-1.1786;-24.3;-22.6;8.8;136.22;-36.23;2.79;0.0;39.609;;;;;;86.0;59.0;3.0;38605;2014-11-08 14:03:36:260
-0.4597;3.6774;9.5001;-0.3787;5.6982;7.7673;0.5319;0.7373;-1.1786;-23.1;-23.4;12.8;140.28;-36.23;2.79;0.0;37.731;;;;;;86.0;59.0;3.0;39106;2014-11-08 14:03:36:761
-0.4597;3.6774;9.5001;-0.3787;5.6982;7.7673;0.5319;0.7373;-1.1786;-18.3;-23.0;18.2;145.39;-36.23;2.79;0.0;37.207;;;;;;86.0;59.0;3.0;39606;2014-11-08 14:03:37:261
-0.4597;3.6774;9.5001;-0.3787;5.6982;7.7673;0.5319;0.7373;-1.1786;-4.6;-23.8;21.9;173.12;-36.23;2.79;0.0;29.286;;;;;;86.0;59.0;3.0;40106;2014-11-08 14:03:37:761
-0.4597;3.6774;9.5001;-0.3787;5.6982;7.7673;0.5319;0.7373;-1.1786;7.8;-28.2;20.1;193.27;-36.23;2.79;0.0;33.231;;;;;;86.0;59.0;3.0;40607;2014-11-08 14:03:38:262
-0.4597;3.6774;9.5001;-0.3787;5.6982;7.7673;0.5319;0.7373;-1.1786;9.4;-27.3;21.0;196.45;-36.23;2.79;0.0;30.373;;;;;;86.0;59.0;3.0;41107;2014-11-08 14:03:38:762
-0.4597;3.6774;9.5001;-0.3787;5.6982;7.7673;0.5319;0.7373;-1.1786;10.3;-28.4;19.6;196.27;-36.23;2.79;0.0;30.794;;;;;;86.0;59.0;3.0;41607;2014-11-08 14:03:39:262
-0.4597;3.6774;9.5001;-0.3787;5.6982;7.7673;0.5319;0.7373;-1.1786;13.5;-29.2;17.0;204.16;-36.23;2.79;0.0;28.611;;;;;;86.0;59.0;3.0;42107;2014-11-08 14:03:39:762
-0.4597;3.6774;9.5001;-0.3787;5.6982;7.7673;0.5319;0.7373;-1.1786;13.6;-29.2;16.4;204.47;-36.23;2.79;0.0;34.388;;;;;;86.0;59.0;3.0;42607;2014-11-08 14:03:40:262
-0.4597;3.6774;9.5001;-0.3787;5.6982;7.7673;0.5319;0.7373;-1.1786;19.0;-29.0;13.2;212.72;-36.23;2.79;0.0;29.822;;;;;;86.0;59.0;3.0;43107;2014-11-08 14:03:40:762
-0.4597;3.6774;9.5001;-0.3787;5.6982;7.7673;0.5319;0.7373;-1.1786;19.2;-28.4;14.2;214.31;-36.23;2.79;0.0;32.328;;;;;;86.0;59.0;3.0;43607;2014-11-08 14:03:41:262
-0.4597;3.6774;9.5001;-0.3787;5.6982;7.7673;0.5319;0.7373;-1.1786;20.4;-28.0;8.8;216.77;-36.23;2.79;0.0;30.121;;;;;;86.0;59.0;3.0;44107;2014-11-08 14:03:41:762
-0.4597;3.6774;9.5001;-0.3787;5.6982;7.7673;0.5319;0.7373;-1.1786;21.5;-28.2;9.6;219.42;-36.23;2.79;0.0;35.853;;;;;;86.0;59.0;3.0;44607;2014-11-08 14:03:42:262
-0.4597;3.6774;9.5001;-0.3787;5.6982;7.7673;0.5319;0.7373;-1.1786;19.9;-29.3;8.8;215.97;-36.23;2.79;0.0;30.537;;;;;;86.0;59.0;3.0;45107;2014-11-08 14:03:42:762
-0.4597;3.6774;9.5001;-0.3787;5.6982;7.7673;0.5319;0.7373;-1.1786;19.8;-29.7;10.2;217.03;-36.23;2.79;0.0;33.447;;;;;;86.0;59.0;3.0;45607;2014-11-08 14:03:43:262
-0.4597;3.6774;9.5001;-0.3787;5.6982;7.7673;0.5319;0.7373;-1.1786;15.2;-30.1;12.0;206.77;-36.23;2.79;0.0;31.775;;;;;;86.0;59.0;3.0;46107;2014-11-08 14:03:43:762
-0.4597;3.6774;9.5001;-0.3787;5.6982;7.7673;0.5319;0.7373;-1.1786;19.9;-30.3;10.4;214.72;-36.23;2.79;0.0;33.801;;;;;;86.0;59.0;3.0;46607;2014-11-08 14:03:44:262
-0.4597;3.6774;9.5001;-0.3787;5.6982;7.7673;0.5319;0.7373;-1.1786;13.8;-30.3;13.6;204.58;-36.23;2.79;0.0;29.667;;;;;;86.0;59.0;3.0;47107;2014-11-08 14:03:44:762
-0.4597;3.6774;9.5001;-0.3787;5.6982;7.7673;0.5319;0.7373;-1.1786;13.8;-29.9;16.4;203.95;-36.23;2.79;0.0;30.911;;;;;;86.0;59.0;3.0;47608;2014-11-08 14:03:45:263
-0.4597;3.6774;9.5001;-0.3787;5.6982;7.7673;0.5319;0.7373;-1.1786;11.6;-29.1;18.0;200.91;-36.23;2.79;0.0;28.59;;;;;;86.0;59.0;3.0;48108;2014-11-08 14:03:45:763
-0.4597;3.6774;9.5001;-0.3787;5.6982;7.7673;0.5319;0.7373;-1.1786;7.4;-28.2;20.5;191.62;-36.23;2.79;0.0;31.932;;;;;;86.0;59.0;3.0;48608;2014-11-08 14:03:46:263
-0.4597;3.6774;9.5001;-0.3787;5.6982;7.7673;0.5319;0.7373;-1.1786;7.6;-27.2;21.1;194.87;-36.23;2.79;0.0;29.655;;;;;;86.0;59.0;3.0;49108;2014-11-08 14:03:46:763
-0.4597;3.6774;9.5001;-0.3787;5.6982;7.7673;0.5319;0.7373;-1.1786;4.3;-26.4;21.8;189.94;-36.23;2.79;0.0;34.217;;;;;;86.0;59.0;3.0;49608;2014-11-08 14:03:47:263
-0.4597;3.6774;9.5001;-0.3787;5.6982;7.7673;0.5319;0.7373;-1.1786;9.3;-26.2;22.1;196.62;-36.23;2.79;0.0;29.295;;;;;;86.0;59.0;3.0;50108;2014-11-08 14:03:47:763
-0.4597;3.6774;9.5001;-0.3787;5.6982;7.7673;0.5319;0.7373;-1.1786;3.8;-26.2;22.1;190.17;-36.23;2.79;0.0;31.114;;;;;;86.0;59.0;3.0;50608;2014-11-08 14:03:48:263
-0.4597;3.6774;9.5001;-0.3787;5.6982;7.7673;0.5319;0.7373;-1.1786;4.8;-26.0;22.8;190.08;-36.23;2.79;0.0;32.513;;;;;;86.0;59.0;3.0;51108;2014-11-08 14:03:48:763
-0.4597;3.6774;9.5001;-0.3787;5.6982;7.7673;0.5319;0.7373;-1.1786;0.3;-25.8;23.0;185.16;-36.23;2.79;0.0;29.006;;;;;;86.0;59.0;3.0;51609;2014-11-08 14:03:49:264
-0.4597;3.6774;9.5001;-0.3787;5.6982;7.7673;0.5319;0.7373;-1.1786;2.4;-25.8;22.8;185.16;-36.23;2.79;0.0;29.468;;;;;;86.0;59.0;3.0;52109;2014-11-08 14:03:49:764
-0.4597;3.6774;9.5001;-0.3787;5.6982;7.7673;0.5319;0.7373;-1.1786;0.9;-25.6;23.0;186.81;-36.23;2.79;0.0;29.995;;;;;;86.0;59.0;3.0;52609;2014-11-08 14:03:50:264
-0.4597;3.6774;9.5001;-0.3787;5.6982;7.7673;0.5319;0.7373;-1.1786;-3.7;-25.8;22.6;175.26;-36.23;2.79;0.0;28.621;;;;;;86.0;59.0;3.0;53110;2014-11-08 14:03:50:765
-0.4597;3.6774;9.5001;-0.3787;5.6982;7.7673;0.5319;0.7373;-1.1786;-0.3;-26.5;22.1;183.49;-36.23;2.79;0.0;31.898;;;;;;86.0;59.0;3.0;53611;2014-11-08 14:03:51:266
-0.4597;3.6774;9.5001;-0.3787;5.6982;7.7673;0.5319;0.7373;-1.1786;-12.3;-26.5;20.8;161.99;-36.23;2.79;0.0;35.327;;;;;;86.0;59.0;3.0;54111;2014-11-08 14:03:51:766
-0.4597;3.6774;9.5001;-0.3787;5.6982;7.7673;0.5319;0.7373;-1.1786;-5.5;-26.1;21.9;173.44;-36.23;2.79;0.0;32.388;;;;;;86.0;59.0;3.0;54611;2014-11-08 14:03:52:266
-0.4597;3.6774;9.5001;-0.3787;5.6982;7.7673;0.5319;0.7373;-1.1786;-14.3;-25.6;19.6;158.59;-36.23;2.79;0.0;32.892;;;;;;86.0;59.0;3.0;55111;2014-11-08 14:03:52:766
-0.4597;3.6774;9.5001;-0.3787;5.6982;7.7673;0.5319;0.7373;-1.1786;-9.0;-25.1;21.4;163.14;-36.23;2.79;0.0;32.125;;;;;;86.0;59.0;3.0;55611;2014-11-08 14:03:53:266
-0.4597;3.6774;9.5001;-0.3787;5.6982;7.7673;0.5319;0.7373;-1.1786;-16.0;-24.7;20.4;155.17;-36.23;2.79;0.0;34.335;;;;;;86.0;59.0;3.0;56111;2014-11-08 14:03:53:766
-0.4597;3.6774;9.5001;-0.3787;5.6982;7.7673;0.5319;0.7373;-1.1786;-17.9;-23.9;18.9;147.43;-36.23;2.79;0.0;29.455;;;;;;86.0;59.0;3.0;56611;2014-11-08 14:03:54:266
-0.4597;3.6774;9.5001;-0.3787;5.6982;7.7673;0.5319;0.7373;-1.1786;-15.9;-23.7;18.9;154.12;-36.23;2.79;0.0;32.539;;;;;;86.0;59.0;3.0;57111;2014-11-08 14:03:54:766
-0.4597;3.6774;9.5001;-0.3787;5.6982;7.7673;0.5319;0.7373;-1.1786;-21.1;-23.5;13.7;142.83;-36.23;2.79;0.0;29.625;;;;;;86.0;59.0;3.0;57612;2014-11-08 14:03:55:267
-0.4597;3.6774;9.5001;-0.3787;5.6982;7.7673;0.5319;0.7373;-1.1786;-16.1;-23.7;18.0;153.61;-36.23;2.79;0.0;33.217;;;;;;86.0;59.0;3.0;58113;2014-11-08 14:03:55:768
-0.4597;3.6774;9.5001;-0.3787;5.6982;7.7673;0.5319;0.7373;-1.1786;-22.0;-23.7;9.7;142.31;-36.23;2.79;0.0;33.583;;;;;;86.0;59.0;3.0;58614;2014-11-08 14:03:56:269
-0.4597;3.6774;9.5001;-0.3787;5.6982;7.7673;0.5319;0.7373;-1.1786;-15.2;-24.1;16.1;154.09;-36.23;2.79;0.0;33.615;;;;;;86.0;59.0;3.0;59114;2014-11-08 14:03:56:769
-0.4597;3.6774;9.5001;-0.3787;5.6982;7.7673;0.5319;0.7373;-1.1786;-19.5;-24.5;11.3;145.06;-36.23;2.79;0.0;30.75;;;;;;86.0;59.0;3.0;59614;2014-11-08 14:03:57:269
-0.4597;3.6774;9.5001;-0.3787;5.6982;7.7673;0.5319;0.7373;-1.1786;-18.7;-24.7;13.7;147.73;-36.23;2.79;0.0;32.335;;;;;;86.0;59.0;3.0;60114;2014-11-08 14:03:57:769
-0.4597;3.6774;9.5001;-0.3787;5.6982;7.7673;0.5319;0.7373;-1.1786;-20.8;-24.7;10.2;147.73;-36.23;2.79;0.0;31.348;;;;;;86.0;59.0;3.0;60614;2014-11-08 14:03:58:269
-0.4597;3.6774;9.5001;-0.3787;5.6982;7.7673;0.5319;0.7373;-1.1786;-24.1;-24.5;6.5;135.66;-36.23;2.79;0.0;29.362;;;;;;86.0;59.0;3.0;61114;2014-11-08 14:03:58:769
-0.4597;3.6774;9.5001;-0.3787;5.6982;7.7673;0.5319;0.7373;-1.1786;-20.3;-24.3;10.6;142.97;-36.23;2.79;0.0;31.147;;;;;;86.0;59.0;3.0;61614;2014-11-08 14:03:59:269
-0.4597;3.6774;9.5001;-0.3787;5.6982;7.7673;0.5319;0.7373;-1.1786;-24.5;-24.1;3.2;132.49;-36.23;2.79;0.0;29.146;;;;;;86.0;59.0;3.0;62115;2014-11-08 14:03:59:770
-0.4597;3.6774;9.5001;-0.3787;5.6982;7.7673;0.5319;0.7373;-1.1786;-21.1;-23.7;9.4;140.91;-36.23;2.79;0.0;29.664;;;;;;86.0;59.0;3.0;62615;2014-11-08 14:04:00:270
-0.4597;3.6774;9.5001;-0.3787;5.6982;7.7673;0.5319;0.7373;-1.1786;-23.9;-23.5;5.2;135.89;-36.23;2.79;0.0;29.986;;;;;;86.0;59.0;3.0;63115;2014-11-08 14:04:00:770
-0.4597;3.6774;9.5001;-0.3787;5.6982;7.7673;0.5319;0.7373;-1.1786;-24.3;-23.3;6.6;134.69;-36.23;2.79;0.0;29.45;;;;;;86.0;59.0;3.0;63615;2014-11-08 14:04:01:270
-0.4597;3.6774;9.5001;-0.3787;5.6982;7.7673;0.5319;0.7373;-1.1786;-22.3;-22.9;9.3;139.42;-36.23;2.79;0.0;31.276;;;;;;86.0;59.0;3.0;64115;2014-11-08 14:04:01:770
-0.4597;3.6774;9.5001;-0.3787;5.6982;7.7673;0.5319;0.7373;-1.1786;-23.9;-23.3;6.0;133.9;-36.23;2.79;0.0;27.005;;;;;;86.0;59.0;3.0;64616;2014-11-08 14:04:02:271
-0.4597;3.6774;9.5001;-0.3787;5.6982;7.7673;0.5319;0.7373;-1.1786;-19.0;-23.9;12.6;142.31;-36.23;2.79;0.0;31.406;;;;;;86.0;59.0;3.0;65116;2014-11-08 14:04:02:771
-0.4597;3.6774;9.5001;-0.3787;5.6982;7.7673;0.5319;0.7373;-1.1786;-22.0;-24.4;7.3;138.12;-36.23;2.79;0.0;27.848;;;;;;86.0;59.0;3.0;65617;2014-11-08 14:04:03:272
-0.4597;3.6774;9.5001;-0.3787;5.6982;7.7673;0.5319;0.7373;-1.1786;-19.7;-24.8;10.6;140.49;-36.23;2.79;0.0;31.06;;;;;;86.0;59.0;3.0;66118;2014-11-08 14:04:03:773
-0.4597;3.6774;9.5001;-0.3787;5.6982;7.7673;0.5319;0.7373;-1.1786;-17.9;-23.9;13.1;147.81;-36.23;2.79;0.0;29.099;;;;;;86.0;59.0;3.0;66618;2014-11-08 14:04:04:273
-0.4597;3.6774;9.5001;-0.3787;5.6982;7.7673;0.5319;0.7373;-1.1786;-18.5;-22.0;9.4;143.35;-36.23;2.79;0.0;30.839;;;;;;86.0;59.0;3.0;67118;2014-11-08 14:04:04:773
-0.4597;3.6774;9.5001;-0.3787;5.6982;7.7673;0.5319;0.7373;-1.1786;-16.7;-21.2;11.9;146.22;-36.23;2.79;0.0;29.583;;;;;;86.0;59.0;3.0;67618;2014-11-08 14:04:05:273
-0.4597;3.6774;9.5001;-0.3787;5.6982;7.7673;0.5319;0.7373;-1.1786;-20.1;-20.4;5.6;137.79;-36.23;2.79;0.0;32.118;;;;;;86.0;59.0;3.0;68118;2014-11-08 14:04:05:773
-0.4597;3.6774;9.5001;-0.3787;5.6982;7.7673;0.5319;0.7373;-1.1786;-16.7;-19.8;11.9;145.33;-36.23;2.79;0.0;29.443;;;;;;86.0;59.0;3.0;68618;2014-11-08 14:04:06:273
-0.4597;3.6774;9.5001;-0.3787;5.6982;7.7673;0.5319;0.7373;-1.1786;-19.3;-19.4;9.9;143.76;-36.23;2.79;0.0;32.532;;;;;;86.0;59.0;3.0;69118;2014-11-08 14:04:06:773
-0.4597;3.6774;9.5001;-0.3787;5.6982;7.7673;0.5319;0.7373;-1.1786;-19.5;-18.5;10.3;138.6;-36.23;2.79;0.0;29.525;;;;;;86.0;59.0;3.0;69618;2014-11-08 14:04:07:273
-0.4597;3.6774;9.5001;-0.3787;5.6982;7.7673;0.5319;0.7373;-1.1786;-18.0;-17.7;13.8;143.41;-36.23;2.79;0.0;33.012;;;;;;86.0;59.0;3.0;70118;2014-11-08 14:04:07:773
-0.4597;3.6774;9.5001;-0.3787;5.6982;7.7673;0.5319;0.7373;-1.1786;-21.9;-17.5;8.0;131.46;-36.23;2.79;0.0;31.502;;;;;;86.0;59.0;3.0;70619;2014-11-08 14:04:08:274
-0.4597;3.6774;9.5001;-0.3787;5.6982;7.7673;0.5319;0.7373;-1.1786;-17.5;-17.5;12.3;141.63;-36.23;2.79;0.0;32.675;;;;;;86.0;59.0;3.0;71120;2014-11-08 14:04:08:775
-0.4597;3.6774;9.5001;-0.3787;5.6982;7.7673;0.5319;0.7373;-1.1786;-22.1;-18.2;5.8;130.77;-36.23;2.79;0.0;31.534;;;;;;86.0;59.0;3.0;71620;2014-11-08 14:04:09:275
-0.4597;3.6774;9.5001;-0.3787;5.6982;7.7673;0.5319;0.7373;-1.1786;-21.8;-18.6;8.7;133.39;-36.23;2.79;0.0;32.92;;;;;;86.0;59.0;3.0;72120;2014-11-08 14:04:09:775
-0.4597;3.6774;9.5001;-0.3787;5.6982;7.7673;0.5319;0.7373;-1.1786;-22.3;-18.6;9.5;135.5;-36.23;2.79;0.0;30.059;;;;;;86.0;59.0;3.0;72620;2014-11-08 14:04:10:275
-0.4597;3.6774;9.5001;-0.3787;5.6982;7.7673;0.5319;0.7373;-1.1786;-24.0;-18.6;8.3;131.33;-36.23;2.79;0.0;32.773;;;;;;86.0;59.0;3.0;73120;2014-11-08 14:04:10:775
-0.4597;3.6774;9.5001;-0.3787;5.6982;7.7673;0.5319;0.7373;-1.1786;-23.9;-18.8;10.8;133.85;-36.23;2.79;0.0;34.141;;;;;;86.0;59.0;3.0;73621;2014-11-08 14:04:11:276
-0.4597;3.6774;9.5001;-0.3787;5.6982;7.7673;0.5319;0.7373;-1.1786;-25.7;-18.8;4.8;127.53;-36.23;2.79;0.0;40.249;;;;;;86.0;59.0;3.0;74121;2014-11-08 14:04:11:776
-0.4597;3.6774;9.5001;-0.3787;5.6982;7.7673;0.5319;0.7373;-1.1786;-23.4;-19.0;10.0;134.23;-36.23;2.79;0.0;31.568;;;;;;86.0;59.0;3.0;74621;2014-11-08 14:04:12:276
-0.4597;3.6774;9.5001;-0.3787;5.6982;7.7673;0.5319;0.7373;-1.1786;-25.8;-19.2;4.4;129.33;-36.23;2.79;0.0;35.257;;;;;;86.0;59.0;3.0;75121;2014-11-08 14:04:12:776
-0.4597;3.6774;9.5001;-0.3787;5.6982;7.7673;0.5319;0.7373;-1.1786;-25.3;-19.2;9.2;131.04;-36.23;2.79;0.0;32.458;;;;;;86.0;59.0;3.0;75621;2014-11-08 14:04:13:276
-0.4597;3.6774;9.5001;-0.3787;5.6982;7.7673;0.5319;0.7373;-1.1786;-25.3;-19.6;7.9;131.27;-36.23;2.79;0.0;34.808;;;;;;86.0;59.0;3.0;76121;2014-11-08 14:04:13:776
-0.4597;3.6774;9.5001;-0.3787;5.6982;7.7673;0.5319;0.7373;-1.1786;-25.4;-20.0;8.7;132.1;-36.23;2.79;0.0;34.337;;;;;;86.0;59.0;3.0;76622;2014-11-08 14:04:14:277
-0.4597;3.6774;9.5001;-0.3787;5.6982;7.7673;0.5319;0.7373;-1.1786;-21.7;-20.4;13.7;140.2;-36.23;2.79;0.0;35.07;;;;;;86.0;59.0;3.0;77122;2014-11-08 14:04:14:777
-0.4597;3.6774;9.5001;-0.3787;5.6982;7.7673;0.5319;0.7373;-1.1786;-26.7;-20.4;5.4;126.62;-36.23;2.79;0.0;33.862;;;;;;86.0;59.0;3.0;77622;2014-11-08 14:04:15:277
-0.4597;3.6774;9.5001;-0.3787;5.6982;7.7673;0.5319;0.7373;-1.1786;-22.3;-20.4;13.5;135.63;-36.23;2.79;0.0;36.088;;;;;;86.0;59.0;3.0;78122;2014-11-08 14:04:15:777
-0.4597;3.6774;9.5001;-0.3787;5.6982;7.7673;0.5319;0.7373;-1.1786;-25.8;-20.0;8.6;131.0;-36.23;2.79;0.0;32.685;;;;;;86.0;59.0;3.0;78622;2014-11-08 14:04:16:277
-0.4597;3.6774;9.5001;-0.3787;5.6982;7.7673;0.5319;0.7373;-1.1786;-23.5;-20.2;12.8;137.6;-36.23;2.79;0.0;33.486;;;;;;86.0;59.0;3.0;79122;2014-11-08 14:04:16:777
-0.4597;3.6774;9.5001;-0.3787;5.6982;7.7673;0.5319;0.7373;-1.1786;-23.7;-20.2;11.9;135.63;-36.23;2.79;0.0;31.567;;;;;;86.0;59.0;3.0;79623;2014-11-08 14:04:17:278
-0.4597;3.6774;9.5001;-0.3787;5.6982;7.7673;0.5319;0.7373;-1.1786;-26.3;-20.4;8.6;129.35;-36.23;2.79;0.0;32.51;;;;;;86.0;59.0;3.0;80123;2014-11-08 14:04:17:778
-0.4597;3.6774;9.5001;-0.3787;5.6982;7.7673;0.5319;0.7373;-1.1786;-19.8;-20.4;15.8;143.72;-36.23;2.79;0.0;32.761;;;;;;86.0;59.0;3.0;80623;2014-11-08 14:04:18:278
-0.4597;3.6774;9.5001;-0.3787;5.6982;7.7673;0.5319;0.7373;-1.1786;-25.3;-20.4;9.7;133.69;-36.23;2.79;0.0;33.849;;;;;;86.0;59.0;3.0;81123;2014-11-08 14:04:18:778
-0.4597;3.6774;9.5001;-0.3787;5.6982;7.7673;0.5319;0.7373;-1.1786;-19.7;-20.8;16.4;144.55;-36.23;2.79;0.0;31.869;;;;;;86.0;59.0;3.0;81623;2014-11-08 14:04:19:278
-0.4597;3.6774;9.5001;-0.3787;5.6982;7.7673;0.5319;0.7373;-1.1786;-22.3;-21.2;12.9;139.79;-36.23;2.79;0.0;33.984;;;;;;86.0;59.0;3.0;82123;2014-11-08 14:04:19:778
-0.4597;3.6774;9.5001;-0.3787;5.6982;7.7673;0.5319;0.7373;-1.1786;-19.1;-21.6;17.4;147.35;-36.23;2.79;0.0;32.983;;;;;;86.0;59.0;3.0;82624;2014-11-08 14:04:20:279
-0.4597;3.6774;9.5001;-0.3787;5.6982;7.7673;0.5319;0.7373;-1.1786;-15.7;-22.0;20.4;156.53;-36.23;2.79;0.0;35.003;;;;;;86.0;59.0;3.0;83124;2014-11-08 14:04:20:779
-0.4597;3.6774;9.5001;-0.3787;5.6982;7.7673;0.5319;0.7373;-1.1786;-18.1;-22.4;17.4;148.78;-36.23;2.79;0.0;32.488;;;;;;86.0;59.0;3.0;83624;2014-11-08 14:04:21:279
-0.4597;3.6774;9.5001;-0.3787;5.6982;7.7673;0.5319;0.7373;-1.1786;-8.5;-23.1;20.8;160.27;-36.23;2.79;0.0;33.304;;;;;;86.0;59.0;3.0;84124;2014-11-08 14:04:21:779
-0.4597;3.6774;9.5001;-0.3787;5.6982;7.7673;0.5319;0.7373;-1.1786;-13.4;-23.3;20.8;159.1;-36.23;2.79;0.0;30.998;;;;;;86.0;59.0;3.0;84624;2014-11-08 14:04:22:279
-0.4597;3.6774;9.5001;-0.3787;5.6982;7.7673;0.5319;0.7373;-1.1786;-11.9;-23.1;21.7;161.1;-36.23;2.79;0.0;30.301;;;;;;86.0;59.0;3.0;85124;2014-11-08 14:04:22:779
-0.4597;3.6774;9.5001;-0.3787;5.6982;7.7673;0.5319;0.7373;-1.1786;-22.6;-22.4;13.4;139.42;-36.23;2.79;0.0;32.221;;;;;;86.0;59.0;3.0;85624;2014-11-08 14:04:23:279
-0.4597;3.6774;9.5001;-0.3787;5.6982;7.7673;0.5319;0.7373;-1.1786;-27.7;-21.6;-13.2;116.99;-36.23;2.79;0.0;29.514;;;;;;86.0;59.0;3.0;86125;2014-11-08 14:04:23:780
-0.4597;3.6774;9.5001;-0.3787;5.6982;7.7673;0.5319;0.7373;-1.1786;-24.4;-20.4;-22.6;97.37;-36.23;2.79;0.0;31.775;;;;;;86.0;59.0;3.0;86625;2014-11-08 14:04:24:280
-0.4597;3.6774;9.5001;-0.3787;5.6982;7.7673;0.5319;0.7373;-1.1786;-12.4;-20.2;-31.9;84.42;-36.23;2.79;0.0;31.219;;;;;;86.0;59.0;3.0;87126;2014-11-08 14:04:24:781
-0.4597;3.6774;9.5001;-0.3787;5.6982;7.7673;0.5319;0.7373;-1.1786;3.4;-22.0;-33.8;330.94;-36.23;2.79;0.0;30.249;;;;;;86.0;59.0;3.0;87626;2014-11-08 14:04:25:281
-0.4597;3.6774;9.5001;-0.3787;5.6982;7.7673;0.5319;0.7373;-1.1786;12.5;-22.4;-33.3;280.51;-36.23;2.79;0.0;31.835;;;;;;86.0;59.0;3.0;88126;2014-11-08 14:04:25:781
-0.4597;3.6774;9.5001;-0.3787;5.6982;7.7673;0.5319;0.7373;-1.1786;22.0;-19.6;-33.9;286.99;-36.23;2.79;0.0;33.056;;;;;;86.0;59.0;3.0;88628;2014-11-08 14:04:26:283
-0.4597;3.6774;9.5001;-0.3787;5.6982;7.7673;0.5319;0.7373;-1.1786;20.6;-19.7;-31.7;264.55;-36.23;2.79;0.0;37.343;;;;;;86.0;59.0;3.0;89128;2014-11-08 14:04:26:783
-0.4597;3.6774;9.5001;-0.3787;5.6982;7.7673;0.5319;0.7373;-1.1786;24.5;-25.5;-19.3;251.11;-36.23;2.79;0.0;50.013;;;;;;86.0;59.0;3.0;89631;2014-11-08 14:04:27:286
-0.4597;3.6774;9.5001;-0.3787;5.6982;7.7673;0.5319;0.7373;-1.1786;22.0;-20.5;-29.2;272.3;-36.23;2.79;0.0;42.822;;;;;;86.0;59.0;3.0;90131;2014-11-08 14:04:27:786
-0.4597;3.6774;9.5001;-0.3787;5.6982;7.7673;0.5319;0.7373;-1.1786;21.7;-28.4;-17.9;241.77;-36.23;2.79;0.0;47.052;;;;;;86.0;59.0;3.0;90631;2014-11-08 14:04:28:286
-0.4597;3.6774;9.5001;-0.3787;5.6982;7.7673;0.5319;0.7373;-1.1786;23.1;-28.8;-12.2;235.05;-36.23;2.79;0.0;50.555;;;;;;86.0;59.0;3.0;91131;2014-11-08 14:04:28:786
-0.4597;3.6774;9.5001;-0.3787;5.6982;7.7673;0.5319;0.7373;-1.1786;20.9;-24.6;-27.2;259.56;-36.23;2.79;0.0;44.839;;;;;;86.0;59.0;3.0;91631;2014-11-08 14:04:29:286
-0.4597;3.6774;9.5001;-0.3787;5.6982;7.7673;0.5319;0.7373;-1.1786;20.5;-28.7;-18.7;235.76;-36.23;2.79;0.0;44.634;;;;;;86.0;59.0;3.0;92131;2014-11-08 14:04:29:786
-0.4597;3.6774;9.5001;-0.3787;5.6982;7.7673;0.5319;0.7373;-1.1786;19.6;-27.5;-18.4;241.02;-36.23;2.79;0.0;49.104;;;;;;86.0;59.0;3.0;92631;2014-11-08 14:04:30:286
-0.4597;3.6774;9.5001;-0.3787;5.6982;7.7673;0.5319;0.7373;-1.1786;15.8;-23.3;-28.0;246.82;-36.23;2.79;0.0;51.069;;;;;;86.0;59.0;3.0;93131;2014-11-08 14:04:30:786
-0.4597;3.6774;9.5001;-0.3787;5.6982;7.7673;0.5319;0.7373;-1.1786;18.0;-25.8;-14.5;234.83;-36.23;2.79;0.0;51.717;;;;;;86.0;59.0;3.0;93631;2014-11-08 14:04:31:286
-0.4597;3.6774;9.5001;-0.3787;5.6982;7.7673;0.5319;0.7373;-1.1786;15.7;-23.5;-21.4;249.16;-36.23;2.79;0.0;45.969;;;;;;86.0;59.0;3.0;94131;2014-11-08 14:04:31:786
-0.4597;3.6774;9.5001;-0.3787;5.6982;7.7673;0.5319;0.7373;-1.1786;12.5;-23.7;-23.0;245.5;-36.23;2.79;0.0;53.238;;;;;;86.0;59.0;3.0;94631;2014-11-08 14:04:32:286
-0.4597;3.6774;9.5001;-0.3787;5.6982;7.7673;0.5319;0.7373;-1.1786;14.0;-25.3;-15.3;236.8;-36.23;2.79;0.0;53.648;;;;;;86.0;59.0;3.0;95132;2014-11-08 14:04:32:787
-0.4597;3.6774;9.5001;-0.3787;5.6982;7.7673;0.5319;0.7373;-1.1786;9.3;-25.4;-23.1;231.19;-36.23;2.79;0.0;42.405;;;;;;86.0;59.0;3.0;95632;2014-11-08 14:04:33:287
-0.4597;3.6774;9.5001;-0.3787;5.6982;7.7673;0.5319;0.7373;-1.1786;9.0;-30.5;-15.5;215.03;-36.23;2.79;0.0;62.322;;;;;;86.0;59.0;3.0;96132;2014-11-08 14:04:33:787
-0.4597;3.6774;9.5001;-0.3787;5.6982;7.7673;0.5319;0.7373;-1.1786;8.5;-29.5;-22.4;217.97;-36.23;2.79;0.0;35.367;;;;;;86.0;59.0;3.0;96633;2014-11-08 14:04:34:288
-0.4597;3.6774;9.5001;-0.3787;5.6982;7.7673;0.5319;0.7373;-1.1786;9.2;-30.5;-19.5;212.37;-36.23;2.79;0.0;44.195;;;;;;86.0;59.0;3.0;97133;2014-11-08 14:04:34:788
-0.4597;3.6774;9.5001;-0.3787;5.6982;7.7673;0.5319;0.7373;-1.1786;9.3;-30.6;-21.6;213.96;-36.23;2.79;0.0;36.607;;;;;;86.0;59.0;3.0;97633;2014-11-08 14:04:35:288
-0.4597;3.6774;9.5001;-0.3787;5.6982;7.7673;0.5319;0.7373;-1.1786;8.7;-31.1;-20.9;213.96;-36.23;2.79;0.0;41.017;;;;;;86.0;59.0;3.0;98133;2014-11-08 14:04:35:788
-0.4597;3.6774;9.5001;-0.3787;5.6982;7.7673;0.5319;0.7373;-1.1786;-4.3;-27.2;-28.4;135.03;-36.23;2.79;0.0;48.6;;;;;;86.0;59.0;3.0;98633;2014-11-08 14:04:36:288
-0.4597;3.6774;9.5001;-0.3787;5.6982;7.7673;0.5319;0.7373;-1.1786;-2.7;-14.9;-38.0;13.21;-36.23;2.79;0.4;46.41;;;;;;86.0;59.0;3.0;99133;2014-11-08 14:04:36:788
-0.4597;3.6774;9.5001;-0.3787;5.6982;7.7673;0.5319;0.7373;-1.1786;29.9;1.7;-31.3;306.14;-36.23;2.79;0.0;33.293;;;;;;86.0;59.0;3.0;99633;2014-11-08 14:04:37:288
-0.4597;3.6774;9.5001;-0.3787;5.6982;7.7673;0.5319;0.7373;-1.1786;28.6;28.7;-17.4;320.61;-36.23;2.79;0.0;31.699;;;;;;86.0;59.0;3.0;100133;2014-11-08 14:04:37:788
-0.4597;3.6774;9.5001;-0.3787;5.6982;7.7673;0.5319;0.7373;-1.1786;29.3;30.7;0.1;315.81;-36.23;2.79;0.0;45.915;;;;;;86.0;59.0;3.0;100633;2014-11-08 14:04:38:288
-0.4597;3.6774;9.5001;-0.3787;5.6982;7.7673;0.5319;0.7373;-1.1786;20.7;11.2;29.2;251.15;-36.23;2.79;0.0;39.336;;;;;;86.0;59.0;3.0;101133;2014-11-08 14:04:38:788
-0.4597;3.6774;9.5001;-0.3787;5.6982;7.7673;0.5319;0.7373;-1.1786;28.3;32.1;-2.5;312.93;-36.23;2.79;0.0;54.062;;;;;;86.0;59.0;3.0;101633;2014-11-08 14:04:39:288
-0.4597;3.6774;9.5001;-0.3787;5.6982;7.7673;0.5319;0.7373;-1.1786;26.8;21.6;18.4;285.83;-36.23;2.79;0.0;47.985;;;;;;86.0;59.0;3.0;102134;2014-11-08 14:04:39:789
-0.4597;3.6774;9.5001;-0.3787;5.6982;7.7673;0.5319;0.7373;-1.1786;24.7;23.2;17.4;312.81;-36.23;2.79;0.0;49.461;;;;;;86.0;59.0;3.0;102634;2014-11-08 14:04:40:289
-0.4597;3.6774;9.5001;-0.3787;5.6982;7.7673;0.5319;0.7373;-1.1786;22.8;31.7;1.2;318.35;-36.23;2.79;0.0;54.53;;;;;;86.0;59.0;3.0;103134;2014-11-08 14:04:40:789
-0.4597;3.6774;9.5001;-0.3787;5.6982;7.7673;0.5319;0.7373;-1.1786;18.7;13.2;25.2;279.38;-36.23;2.79;0.0;52.141;;;;;;86.0;59.0;3.0;103634;2014-11-08 14:04:41:289
-0.4597;3.6774;9.5001;-0.3787;5.6982;7.7673;0.5319;0.7373;-1.1786;21.7;31.5;4.6;316.6;-36.23;2.79;0.0;56.575;;;;;;86.0;59.0;3.0;104134;2014-11-08 14:04:41:789
-0.4597;3.6774;9.5001;-0.3787;5.6982;7.7673;0.5319;0.7373;-1.1786;24.6;29.6;3.4;312.66;-36.23;2.79;0.0;52.013;;;;;;86.0;59.0;3.0;104634;2014-11-08 14:04:42:289
-0.4597;3.6774;9.5001;-0.3787;5.6982;7.7673;0.5319;0.7373;-1.1786;22.2;12.2;25.2;259.15;-36.23;2.79;0.0;52.859;;;;;;86.0;59.0;3.0;105134;2014-11-08 14:04:42:789
-0.4597;3.6774;9.5001;-0.3787;5.6982;7.7673;0.5319;0.7373;-1.1786;24.1;33.3;1.4;319.23;-36.23;2.79;0.0;59.844;;;;;;86.0;59.0;3.0;105634;2014-11-08 14:04:43:289
-0.4597;3.6774;9.5001;-0.3787;5.6982;7.7673;0.5319;0.7373;-1.1786;29.0;23.8;13.0;292.93;-36.23;2.79;0.0;51.868;;;;;;86.0;59.0;3.0;106134;2014-11-08 14:04:43:789
-0.4597;3.6774;9.5001;-0.3787;5.6982;7.7673;0.5319;0.7373;-1.1786;28.1;24.5;13.6;311.73;-36.23;2.79;0.0;53.567;;;;;;86.0;59.0;3.0;106634;2014-11-08 14:04:44:289
-0.4597;3.6774;9.5001;-0.3787;5.6982;7.7673;0.5319;0.7373;-1.1786;26.5;33.3;-2.0;316.76;-36.23;2.79;0.0;59.966;;;;;;86.0;59.0;3.0;107134;2014-11-08 14:04:44:789
-0.4597;3.6774;9.5001;-0.3787;5.6982;7.7673;0.5319;0.7373;-1.1786;29.6;21.3;15.7;285.21;-36.23;2.79;0.0;50.894;;;;;;86.0;59.0;3.0;107634;2014-11-08 14:04:45:289
-0.4597;3.6774;9.5001;-0.3787;5.6982;7.7673;0.5319;0.7373;-1.1786;26.9;26.2;15.1;294.96;-36.23;2.79;0.0;50.114;;;;;;86.0;59.0;3.0;108134;2014-11-08 14:04:45:789
-0.4597;3.6774;9.5001;-0.3787;5.6982;7.7673;0.5319;0.7373;-1.1786;27.0;31.9;6.2;290.9;-36.23;2.79;0.0;56.984;;;;;;86.0;59.0;3.0;108634;2014-11-08 14:04:46:289
-0.4597;3.6774;9.5001;-0.3787;5.6982;7.7673;0.5319;0.7373;-1.1786;30.3;11.3;21.8;264.02;-36.23;2.79;0.0;49.517;;;;;;86.0;59.0;3.0;109134;2014-11-08 14:04:46:789
-0.4597;3.6774;9.5001;-0.3787;5.6982;7.7673;0.5319;0.7373;-1.1786;28.4;32.3;2.3;301.08;-36.23;2.79;0.0;58.568;;;;;;86.0;59.0;3.0;109634;2014-11-08 14:04:47:289
-0.4597;3.6774;9.5001;-0.3787;5.6982;7.7673;0.5319;0.7373;-1.1786;31.8;15.1;19.0;273.14;-36.23;2.79;0.0;49.938;;;;;;86.0;59.0;3.0;110134;2014-11-08 14:04:47:789
-0.4597;3.6774;9.5001;-0.3787;5.6982;7.7673;0.5319;0.7373;-1.1786;32.8;26.9;-11.8;307.13;-36.23;2.79;0.0;58.697;;;;;;86.0;59.0;3.0;110634;2014-11-08 14:04:48:289
-0.4597;3.6774;9.5001;-0.3787;5.6982;7.7673;0.5319;0.7373;-1.1786;21.4;37.8;-11.4;331.57;-36.23;2.79;0.0;45.818;;;;;;86.0;59.0;3.0;111134;2014-11-08 14:04:48:789
-0.4597;3.6774;9.5001;-0.3787;5.6982;7.7673;0.5319;0.7373;-1.1786;5.3;34.9;-27.1;352.33;-36.23;2.79;0.0;49.983;;;;;;86.0;59.0;3.0;111634;2014-11-08 14:04:49:289
-0.4597;3.6774;9.5001;-0.3787;5.6982;7.7673;0.5319;0.7373;-1.1786;-7.7;36.9;-22.5;12.01;-36.23;2.79;0.0;61.678;;;;;;86.0;59.0;3.0;112135;2014-11-08 14:04:49:790
-0.4597;3.6774;9.5001;-0.3787;5.6982;7.7673;0.5319;0.7373;-1.1786;-12.9;37.6;-15.6;26.37;-36.23;2.79;0.0;50.366;;;;;;86.0;59.0;3.0;112636;2014-11-08 14:04:50:291
-0.4597;3.6774;9.5001;-0.3787;5.6982;7.7673;0.5319;0.7373;-1.1786;5.3;41.3;-14.6;354.21;-36.23;2.79;0.4;50.325;;;;;;86.0;59.0;3.0;113136;2014-11-08 14:04:50:791
-0.4597;3.6774;9.5001;-0.3787;5.6982;7.7673;0.5319;0.7373;-1.1786;34.0;3.2;-28.8;302.23;-36.23;2.79;0.4;39.787;;;;;;86.0;59.0;3.0;113636;2014-11-08 14:04:51:291
-0.4597;3.6774;9.5001;-0.3787;5.6982;7.7673;0.5319;0.7373;-1.1786;13.3;-34.1;-16.6;215.54;-36.23;2.79;0.4;32.45;;;;;;86.0;59.0;3.0;114137;2014-11-08 14:04:51:792
-0.4597;3.6774;9.5001;-0.3787;5.6982;7.7673;0.5319;0.7373;-1.1786;15.7;-34.2;-13.8;218.73;-36.23;2.79;0.0;52.235;;;;;;86.0;59.0;3.0;114637;2014-11-08 14:04:52:292
-0.4597;3.6774;9.5001;-0.3787;5.6982;7.7673;0.5319;0.7373;-1.1786;15.3;-34.0;-13.1;216.6;-36.23;2.79;0.0;55.667;;;;;;86.0;59.0;3.0;115137;2014-11-08 14:04:52:792
-0.4597;3.6774;9.5001;-0.3787;5.6982;7.7673;0.5319;0.7373;-1.1786;15.3;-34.4;-15.3;220.1;-36.23;2.79;0.0;37.659;;;;;;86.0;59.0;3.0;115638;2014-11-08 14:04:53:293
-0.4597;3.6774;9.5001;-0.3787;5.6982;7.7673;0.5319;0.7373;-1.1786;15.1;-34.4;-13.4;216.6;-36.23;2.79;0.0;32.319;;;;;;86.0;59.0;3.0;116138;2014-11-08 14:04:53:793
-0.4597;3.6774;9.5001;-0.3787;5.6982;7.7673;0.5319;0.7373;-1.1786;15.5;-34.2;-14.6;220.1;-36.23;2.79;0.0;33.812;;;;;;86.0;59.0;3.0;116638;2014-11-08 14:04:54:293
-0.4597;3.6774;9.5001;-0.3787;5.6982;7.7673;0.5319;0.7373;-1.1786;15.1;-33.8;-14.3;217.36;-36.23;2.79;0.0;32.606;;;;;;86.0;59.0;3.0;117138;2014-11-08 14:04:54:793
-0.4597;3.6774;9.5001;-0.3787;5.6982;7.7673;0.5319;0.7373;-1.1786;14.5;-34.0;-11.6;216.6;-36.23;2.79;0.0;32.454;;;;;;86.0;59.0;3.0;117638;2014-11-08 14:04:55:293
-0.4597;3.6774;9.5001;-0.3787;5.6982;7.7673;0.5319;0.7373;-1.1786;14.1;-34.4;-15.3;216.11;-36.23;2.79;0.0;31.304;;;;;;86.0;59.0;3.0;118139;2014-11-08 14:04:55:794
-0.4597;3.6774;9.5001;-0.3787;5.6982;7.7673;0.5319;0.7373;-1.1786;13.7;-34.6;-14.2;214.21;-36.23;2.79;0.0;31.454;;;;;;86.0;59.0;3.0;118639;2014-11-08 14:04:56:294
-0.4597;3.6774;9.5001;-0.3787;5.6982;7.7673;0.5319;0.7373;-1.1786;13.1;-34.4;-14.8;213.96;-36.23;2.79;0.0;33.113;;;;;;86.0;59.0;3.0;119139;2014-11-08 14:04:56:794
-0.4597;3.6774;9.5001;-0.3787;5.6982;7.7673;0.5319;0.7373;-1.1786;13.3;-34.2;-14.8;213.96;-36.23;2.79;0.0;33.092;;;;;;86.0;59.0;3.0;119639;2014-11-08 14:04:57:294
-0.4597;3.6774;9.5001;-0.3787;5.6982;7.7673;0.5319;0.7373;-1.1786;14.8;-33.8;-13.2;216.6;-36.23;2.79;0.0;32.708;;;;;;86.0;59.0;3.0;120139;2014-11-08 14:04:57:794
-0.4597;3.6774;9.5001;-0.3787;5.6982;7.7673;0.5319;0.7373;-1.1786;15.5;-33.6;-13.8;218.16;-36.23;2.79;0.0;33.918;;;;;;86.0;59.0;3.0;120639;2014-11-08 14:04:58:294
-0.4597;3.6774;9.5001;-0.3787;5.6982;7.7673;0.5319;0.7373;-1.1786;15.5;-33.6;-11.9;217.76;-36.23;2.79;0.0;30.699;;;;;;86.0;59.0;3.0;121139;2014-11-08 14:04:58:794
-0.4597;3.6774;9.5001;-0.3787;5.6982;7.7673;0.5319;0.7373;-1.1786;15.5;-33.6;-14.6;219.29;-36.23;2.79;0.0;32.65;;;;;;86.0;59.0;3.0;121640;2014-11-08 14:04:59:295
-0.4597;3.6774;9.5001;-0.3787;5.6982;7.7673;0.5319;0.7373;-1.1786;15.7;-33.6;-12.6;218.51;-36.23;2.79;0.0;33.106;;;;;;86.0;59.0;3.0;122141;2014-11-08 14:04:59:796
-0.4597;3.6774;9.5001;-0.3787;5.6982;7.7673;0.5319;0.7373;-1.1786;15.3;-33.4;-13.1;217.78;-36.23;2.79;0.0;35.247;;;;;;86.0;59.0;3.0;122641;2014-11-08 14:05:00:296
-0.4597;3.6774;9.5001;-0.3787;5.6982;7.7673;0.5319;0.7373;-1.1786;15.1;-33.6;-12.5;216.6;-36.23;2.79;0.0;30.698;;;;;;86.0;59.0;3.0;123141;2014-11-08 14:05:00:796
-0.4597;3.6774;9.5001;-0.3787;5.6982;7.7673;0.5319;0.7373;-1.1786;14.7;-33.6;-12.3;215.87;-36.23;2.79;0.0;30.866;;;;;;86.0;59.0;3.0;123642;2014-11-08 14:05:01:297
-0.4597;3.6774;9.5001;-0.3787;5.6982;7.7673;0.5319;0.7373;-1.1786;14.7;-33.4;-13.4;217.78;-36.23;2.79;0.0;29.322;;;;;;86.0;59.0;3.0;124142;2014-11-08 14:05:01:797
-0.4597;3.6774;9.5001;-0.3787;5.6982;7.7673;0.5319;0.7373;-1.1786;14.7;-33.0;-12.4;217.01;-36.23;2.79;0.0;30.925;;;;;;86.0;59.0;3.0;124642;2014-11-08 14:05:02:297
-0.4597;3.6774;9.5001;-0.3787;5.6982;7.7673;0.5319;0.7373;-1.1786;14.9;-32.4;-13.3;217.78;-36.23;2.79;0.0;30.533;;;;;;86.0;59.0;3.0;125142;2014-11-08 14:05:02:797
-0.4597;3.6774;9.5001;-0.3787;5.6982;7.7673;0.5319;0.7373;-1.1786;15.3;-32.0;-13.1;219.02;-36.23;2.79;0.0;29.004;;;;;;86.0;59.0;3.0;125642;2014-11-08 14:05:03:297
-0.4597;3.6774;9.5001;-0.3787;5.6982;7.7673;0.5319;0.7373;-1.1786;15.9;-31.2;-13.3;222.29;-36.23;2.79;0.0;30.162;;;;;;86.0;59.0;3.0;126142;2014-11-08 14:05:03:797
-0.4597;3.6774;9.5001;-0.3787;5.6982;7.7673;0.5319;0.7373;-1.1786;16.1;-30.2;-12.0;222.75;-36.23;2.79;0.0;32.681;;;;;;86.0;59.0;3.0;126643;2014-11-08 14:05:04:298
-0.4597;3.6774;9.5001;-0.3787;5.6982;7.7673;0.5319;0.7373;-1.1786;16.7;-29.4;-6.3;220.76;-36.23;2.79;0.0;28.337;;;;;;86.0;59.0;3.0;127143;2014-11-08 14:05:04:798
-0.4597;3.6774;9.5001;-0.3787;5.6982;7.7673;0.5319;0.7373;-1.1786;18.4;-28.8;0.4;218.17;-36.23;2.79;0.0;30.677;;;;;;86.0;59.0;3.0;127643;2014-11-08 14:05:05:298
-0.4597;3.6774;9.5001;-0.3787;5.6982;7.7673;0.5319;0.7373;-1.1786;20.0;-28.4;10.7;217.85;-36.23;2.79;0.0;30.205;;;;;;86.0;59.0;3.0;128144;2014-11-08 14:05:05:799
-0.4597;3.6774;9.5001;-0.3787;5.6982;7.7673;0.5319;0.7373;-1.1786;13.3;-28.4;17.7;202.88;-36.23;2.79;0.0;29.811;;;;;;86.0;59.0;3.0;128644;2014-11-08 14:05:06:299
-0.4597;3.6774;9.5001;-0.3787;5.6982;7.7673;0.5319;0.7373;-1.1786;18.3;-28.6;16.1;206.02;-36.23;2.79;0.0;27.762;;;;;;86.0;59.0;3.0;129144;2014-11-08 14:05:06:799
-0.4597;3.6774;9.5001;-0.3787;5.6982;7.7673;0.5319;0.7373;-1.1786;17.1;-29.3;-8.6;223.24;-36.23;2.79;0.0;28.053;;;;;;86.0;59.0;3.0;129645;2014-11-08 14:05:07:300
-0.4597;3.6774;9.5001;-0.3787;5.6982;7.7673;0.5319;0.7373;-1.1786;18.0;-26.4;-17.0;238.72;-36.23;2.79;0.0;33.576;;;;;;86.0;59.0;3.0;130145;2014-11-08 14:05:07:800
-0.4597;3.6774;9.5001;-0.3787;5.6982;7.7673;0.5319;0.7373;-1.1786;18.1;-26.6;-14.4;233.08;-36.23;2.79;0.0;37.823;;;;;;86.0;59.0;3.0;130645;2014-11-08 14:05:08:300
-0.4597;3.6774;9.5001;-0.3787;5.6982;7.7673;0.5319;0.7373;-1.1786;14.8;-25.9;-19.3;231.32;-36.23;2.79;0.0;34.314;;;;;;86.0;59.0;3.0;131145;2014-11-08 14:05:08:800
-0.4597;3.6774;9.5001;-0.3787;5.6982;7.7673;0.5319;0.7373;-1.1786;21.9;-25.3;-14.5;242.11;-36.23;2.79;0.0;36.079;;;;;;86.0;59.0;3.0;131645;2014-11-08 14:05:09:300
-0.4597;3.6774;9.5001;-0.3787;5.6982;7.7673;0.5319;0.7373;-1.1786;20.5;-25.1;-15.5;242.11;-36.23;2.79;0.0;36.08;;;;;;86.0;59.0;3.0;132145;2014-11-08 14:05:09:800
-0.4597;3.6774;9.5001;-0.3787;5.6982;7.7673;0.5319;0.7373;-1.1786;22.1;-21.0;-16.8;253.48;-36.23;2.79;0.0;33.522;;;;;;86.0;59.0;3.0;132645;2014-11-08 14:05:10:300
-0.4597;3.6774;9.5001;-0.3787;5.6982;7.7673;0.5319;0.7373;-1.1786;24.6;-21.5;-11.6;249.46;-36.23;2.79;0.0;35.742;;;;;;86.0;59.0;3.0;133145;2014-11-08 14:05:10:800
-0.4597;3.6774;9.5001;-0.3787;5.6982;7.7673;0.5319;0.7373;-1.1786;21.0;-21.6;-17.1;250.57;-36.23;2.79;0.0;31.178;;;;;;86.0;59.0;3.0;133645;2014-11-08 14:05:11:300
-0.4597;3.6774;9.5001;-0.3787;5.6982;7.7673;0.5319;0.7373;-1.1786;22.0;-30.0;-9.6;232.81;-36.23;2.79;0.0;33.62;;;;;;86.0;59.0;3.0;134145;2014-11-08 14:05:11:800
-0.4597;3.6774;9.5001;-0.3787;5.6982;7.7673;0.5319;0.7373;-1.1786;17.0;-34.0;-13.7;221.12;-36.23;2.79;0.0;28.244;;;;;;86.0;59.0;3.0;134645;2014-11-08 14:05:12:300
-0.4597;3.6774;9.5001;-0.3787;5.6982;7.7673;0.5319;0.7373;-1.1786;18.6;-32.9;-13.0;227.34;-36.23;2.79;0.0;27.474;;;;;;86.0;59.0;3.0;135146;2014-11-08 14:05:12:801
-0.4597;3.6774;9.5001;-0.3787;5.6982;7.7673;0.5319;0.7373;-1.1786;17.8;-34.1;-13.0;222.05;-36.23;2.79;0.0;28.5;;;;;;86.0;59.0;3.0;135646;2014-11-08 14:05:13:301
-0.4597;3.6774;9.5001;-0.3787;5.6982;7.7673;0.5319;0.7373;-1.1786;17.0;-34.3;-18.4;224.64;-36.23;2.79;0.0;30.35;;;;;;86.0;59.0;3.0;136146;2014-11-08 14:05:13:801
-0.4597;3.6774;9.5001;-0.3787;5.6982;7.7673;0.5319;0.7373;-1.1786;18.2;-34.1;-13.5;222.05;-36.23;2.79;0.0;31.015;;;;;;86.0;59.0;3.0;136646;2014-11-08 14:05:14:301
-0.4597;3.6774;9.5001;-0.3787;5.6982;7.7673;0.5319;0.7373;-1.1786;14.9;-34.1;-18.8;221.95;-36.23;2.79;0.0;29.007;;;;;;86.0;59.0;3.0;137146;2014-11-08 14:05:14:801
-0.4597;3.6774;9.5001;-0.3787;5.6982;7.7673;0.5319;0.7373;-1.1786;12.8;-33.0;-23.1;223.13;-36.23;2.79;0.0;29.401;;;;;;86.0;59.0;3.0;137647;2014-11-08 14:05:15:302
-0.4597;3.6774;9.5001;-0.3787;5.6982;7.7673;0.5319;0.7373;-1.1786;13.3;-32.5;-23.0;223.17;-36.23;2.79;0.0;32.027;;;;;;86.0;59.0;3.0;138147;2014-11-08 14:05:15:802
-0.4597;3.6774;9.5001;-0.3787;5.6982;7.7673;0.5319;0.7373;-1.1786;-6.7;-31.1;-25.6;140.05;-36.23;2.79;0.0;27.365;;;;;;86.0;59.0;3.0;138647;2014-11-08 14:05:16:302
-0.4597;3.6774;9.5001;-0.3787;5.6982;7.7673;0.5319;0.7373;-1.1786;-14.4;-30.3;-23.0;126.13;-36.23;2.79;0.0;30.503;;;;;;86.0;59.0;3.0;139147;2014-11-08 14:05:16:802
-0.4597;3.6774;9.5001;-0.3787;5.6982;7.7673;0.5319;0.7373;-1.1786;-21.1;-28.0;-20.1;119.83;-36.23;2.79;0.0;27.383;;;;;;86.0;59.0;3.0;139648;2014-11-08 14:05:17:303
-0.4597;3.6774;9.5001;-0.3787;5.6982;7.7673;0.5319;0.7373;-1.1786;-22.1;-26.6;-13.9;120.93;-36.23;2.79;0.0;27.853;;;;;;86.0;59.0;3.0;140148;2014-11-08 14:05:17:803
-0.4597;3.6774;9.5001;-0.3787;5.6982;7.7673;0.5319;0.7373;-1.1786;-20.3;-25.6;-18.2;117.64;-36.23;2.79;0.0;28.147;;;;;;86.0;59.0;3.0;140648;2014-11-08 14:05:18:303
-0.4597;3.6774;9.5001;-0.3787;5.6982;7.7673;0.5319;0.7373;-1.1786;-21.3;-24.4;-14.3;116.13;-36.23;2.79;0.0;27.607;;;;;;86.0;59.0;3.0;141150;2014-11-08 14:05:18:805
-0.4597;3.6774;9.5001;-0.3787;5.6982;7.7673;0.5319;0.7373;-1.1786;-20.1;-23.6;-20.0;111.2;-36.23;2.79;0.0;30.875;;;;;;86.0;59.0;3.0;141651;2014-11-08 14:05:19:306
-0.4597;3.6774;9.5001;-0.3787;5.6982;7.7673;0.5319;0.7373;-1.1786;-19.5;-23.2;-20.2;110.08;-36.23;2.79;0.0;28.965;;;;;;86.0;59.0;3.0;142151;2014-11-08 14:05:19:806
-0.4597;3.6774;9.5001;-0.3787;5.6982;7.7673;0.5319;0.7373;-1.1786;-13.9;-23.0;-24.7;105.43;-36.23;2.79;0.0;34.239;;;;;;86.0;59.0;3.0;142651;2014-11-08 14:05:20:306
-0.4597;3.6774;9.5001;-0.3787;5.6982;7.7673;0.5319;0.7373;-1.1786;-7.4;-23.2;-30.4;104.91;-36.23;2.79;0.0;34.876;;;;;;86.0;59.0;3.0;143151;2014-11-08 14:05:20:806
-0.4597;3.6774;9.5001;-0.3787;5.6982;7.7673;0.5319;0.7373;-1.1786;-16.0;-22.7;-27.5;100.08;-36.23;2.79;0.0;36.658;;;;;;86.0;59.0;3.0;143651;2014-11-08 14:05:21:306
-0.4597;3.6774;9.5001;-0.3787;5.6982;7.7673;0.5319;0.7373;-1.1786;-8.2;-23.3;-30.3;102.5;-36.23;2.79;0.0;34.496;;;;;;86.0;59.0;3.0;144152;2014-11-08 14:05:21:807
-0.4597;3.6774;9.5001;-0.3787;5.6982;7.7673;0.5319;0.7373;-1.1786;-11.3;-20.9;-28.4;93.36;-36.23;2.79;0.0;32.555;;;;;;86.0;59.0;3.0;144653;2014-11-08 14:05:22:308
-0.4597;3.6774;9.5001;-0.3787;5.6982;7.7673;0.5319;0.7373;-1.1786;-15.5;-20.1;-25.8;94.28;-36.23;2.79;0.0;32.634;;;;;;86.0;59.0;3.0;145153;2014-11-08 14:05:22:808
-0.4597;3.6774;9.5001;-0.3787;5.6982;7.7673;0.5319;0.7373;-1.1786;-11.8;-12.3;-25.8;68.11;-36.23;2.79;0.0;33.182;;;;;;86.0;59.0;3.0;145653;2014-11-08 14:05:23:308
-0.4597;3.6774;9.5001;-0.3787;5.6982;7.7673;0.5319;0.7373;-1.1786;-21.0;-10.5;-13.4;86.58;-36.23;2.79;0.0;32.272;;;;;;86.0;59.0;3.0;146154;2014-11-08 14:05:23:809
-0.4597;3.6774;9.5001;-0.3787;5.6982;7.7673;0.5319;0.7373;-1.1786;-23.4;-13.5;-13.7;96.95;-36.23;2.79;0.0;29.508;;;;;;86.0;59.0;3.0;146654;2014-11-08 14:05:24:309
-0.4597;3.6774;9.5001;-0.3787;5.6982;7.7673;0.5319;0.7373;-1.1786;-25.2;-19.5;-11.7;107.7;-36.23;2.79;0.0;31.7;;;;;;86.0;59.0;3.0;147155;2014-11-08 14:05:24:810
-0.4597;3.6774;9.5001;-0.3787;5.6982;7.7673;0.5319;0.7373;-1.1786;-26.4;-22.3;-16.0;108.69;-36.23;2.79;0.0;28.815;;;;;;86.0;59.0;3.0;147656;2014-11-08 14:05:25:311
-0.4597;3.6774;9.5001;-0.3787;5.6982;7.7673;0.5319;0.7373;-1.1786;-24.7;-22.4;-20.1;104.39;-36.23;2.79;0.0;29.232;;;;;;86.0;59.0;3.0;148156;2014-11-08 14:05:25:811
-0.4597;3.6774;9.5001;-0.3787;5.6982;7.7673;0.5319;0.7373;-1.1786;-21.1;-24.7;-19.2;113.57;-36.23;2.79;0.0;28.895;;;;;;86.0;59.0;3.0;148656;2014-11-08 14:05:26:311
-0.4597;3.6774;9.5001;-0.3787;5.6982;7.7673;0.5319;0.7373;-1.1786;-6.5;-25.8;-24.8;119.39;-36.23;2.79;0.0;32.128;;;;;;86.0;59.0;3.0;149156;2014-11-08 14:05:26:811
-0.4597;3.6774;9.5001;-0.3787;5.6982;7.7673;0.5319;0.7373;-1.1786;1.0;-26.5;-23.1;179.06;-36.23;2.79;0.0;31.175;;;;;;86.0;59.0;3.0;149657;2014-11-08 14:05:27:312
-0.4597;3.6774;9.5001;-0.3787;5.6982;7.7673;0.5319;0.7373;-1.1786;18.0;-27.4;-15.0;234.27;-36.23;2.79;0.0;32.579;;;;;;86.0;59.0;3.0;150157;2014-11-08 14:05:27:812
-0.4597;3.6774;9.5001;-0.3787;5.6982;7.7673;0.5319;0.7373;-1.1786;17.4;-30.8;-4.3;221.29;-36.23;2.79;0.0;32.848;;;;;;86.0;59.0;3.0;150657;2014-11-08 14:05:28:312
-0.4597;3.6774;9.5001;-0.3787;5.6982;7.7673;0.5319;0.7373;-1.1786;17.7;-31.2;-5.3;219.47;-36.23;2.79;0.0;32.654;;;;;;86.0;59.0;3.0;151157;2014-11-08 14:05:28:812
-0.4597;3.6774;9.5001;-0.3787;5.6982;7.7673;0.5319;0.7373;-1.1786;18.1;-31.4;-4.0;218.79;-36.23;2.79;0.0;32.401;;;;;;86.0;59.0;3.0;151657;2014-11-08 14:05:29:312
-0.4597;3.6774;9.5001;-0.3787;5.6982;7.7673;0.5319;0.7373;-1.1786;16.5;-30.5;-8.9;221.96;-36.23;2.79;0.0;30.834;;;;;;86.0;59.0;3.0;152158;2014-11-08 14:05:29:813
-0.4597;3.6774;9.5001;-0.3787;5.6982;7.7673;0.5319;0.7373;-1.1786;16.4;-29.4;-10.0;221.85;-36.23;2.79;0.0;33.0;;;;;;86.0;59.0;3.0;152658;2014-11-08 14:05:30:313
-0.4597;3.6774;9.5001;-0.3787;5.6982;7.7673;0.5319;0.7373;-1.1786;15.6;-27.1;-19.0;236.14;-36.23;2.79;0.0;29.388;;;;;;86.0;59.0;3.0;153158;2014-11-08 14:05:30:813
-0.4597;3.6774;9.5001;-0.3787;5.6982;7.7673;0.5319;0.7373;-1.1786;3.0;-26.3;-25.4;209.87;-36.23;2.79;0.0;32.008;;;;;;86.0;59.0;3.0;153658;2014-11-08 14:05:31:313
-0.4597;3.6774;9.5001;-0.3787;5.6982;7.7673;0.5319;0.7373;-1.1786;-0.8;-25.5;-25.9;154.95;-36.23;2.79;0.0;31.852;;;;;;86.0;59.0;3.0;154158;2014-11-08 14:05:31:813
-0.4597;3.6774;9.5001;-0.3787;5.6982;7.7673;0.5319;0.7373;-1.1786;-11.0;-24.9;-26.3;116.33;-36.23;2.79;0.0;33.828;;;;;;86.0;59.0;3.0;154658;2014-11-08 14:05:32:313
-0.4597;3.6774;9.5001;-0.3787;5.6982;7.7673;0.5319;0.7373;-1.1786;-11.2;-25.3;-25.1;115.13;-36.23;2.79;0.0;34.061;;;;;;86.0;59.0;3.0;155159;2014-11-08 14:05:32:814
-0.4597;3.6774;9.5001;-0.3787;5.6982;7.7673;0.5319;0.7373;-1.1786;-9.9;-26.0;-25.7;117.71;-36.23;2.79;0.0;30.122;;;;;;86.0;59.0;3.0;155660;2014-11-08 14:05:33:315
-0.4597;3.6774;9.5001;-0.3787;5.6982;7.7673;0.5319;0.7373;-1.1786;-13.6;-26.9;-23.9;117.87;-36.23;2.79;0.0;32.578;;;;;;86.0;59.0;3.0;156164;2014-11-08 14:05:33:819
-0.4597;3.6774;9.5001;-0.3787;5.6982;7.7673;0.5319;0.7373;-1.1786;-10.3;-27.3;-23.6;125.3;-36.23;2.79;0.0;30.695;;;;;;86.0;59.0;3.0;156664;2014-11-08 14:05:34:319
-0.4597;3.6774;9.5001;-0.3787;5.6982;7.7673;0.5319;0.7373;-1.1786;-14.7;-27.3;-22.4;119.88;-36.23;2.79;0.0;34.943;;;;;;86.0;59.0;3.0;157164;2014-11-08 14:05:34:819
-0.4597;3.6774;9.5001;-0.3787;5.6982;7.7673;0.5319;0.7373;-1.1786;-12.3;-26.9;-21.3;126.79;-36.23;2.79;0.0;36.88;;;;;;86.0;59.0;3.0;157664;2014-11-08 14:05:35:319
-0.4597;3.6774;9.5001;-0.3787;5.6982;7.7673;0.5319;0.7373;-1.1786;-10.4;-27.1;-21.1;131.29;-36.23;2.79;0.0;37.479;;;;;;86.0;59.0;3.0;158165;2014-11-08 14:05:35:820
-0.4597;3.6774;9.5001;-0.3787;5.6982;7.7673;0.5319;0.7373;-1.1786;-11.2;-27.7;-21.3;131.18;-36.23;2.79;0.0;33.02;;;;;;86.0;59.0;3.0;158665;2014-11-08 14:05:36:320
-0.4597;3.6774;9.5001;-0.3787;5.6982;7.7673;0.5319;0.7373;-1.1786;-10.4;-27.9;-21.5;133.57;-36.23;2.79;0.0;32.81;;;;;;86.0;59.0;3.0;159165;2014-11-08 14:05:36:820
-0.4597;3.6774;9.5001;-0.3787;5.6982;7.7673;0.5319;0.7373;-1.1786;-11.2;-27.9;-21.1;131.18;-36.23;2.79;0.0;33.213;;;;;;86.0;59.0;3.0;159665;2014-11-08 14:05:37:320
-0.4597;3.6774;9.5001;-0.3787;5.6982;7.7673;0.5319;0.7373;-1.1786;-14.3;-27.5;-20.7;123.11;-36.23;2.79;0.0;33.419;;;;;;86.0;59.0;3.0;160165;2014-11-08 14:05:37:820
-0.4597;3.6774;9.5001;-0.3787;5.6982;7.7673;0.5319;0.7373;-1.1786;-14.9;-27.1;-20.1;123.11;-36.23;2.79;0.0;32.691;;;;;;86.0;59.0;3.0;160665;2014-11-08 14:05:38:320
-0.4597;3.6774;9.5001;-0.3787;5.6982;7.7673;0.5319;0.7373;-1.1786;-15.1;-27.1;-19.9;123.11;-36.23;2.79;0.0;31.914;;;;;;86.0;59.0;3.0;161166;2014-11-08 14:05:38:821
-0.4597;3.6774;9.5001;-0.3787;5.6982;7.7673;0.5319;0.7373;-1.1786;-14.7;-27.1;-19.9;123.11;-36.23;2.79;0.0;39.658;;;;;;86.0;59.0;3.0;161666;2014-11-08 14:05:39:321
-0.4597;3.6774;9.5001;-0.3787;5.6982;7.7673;0.5319;0.7373;-1.1786;-14.4;-26.5;-20.5;122.61;-36.23;2.79;0.0;37.664;;;;;;86.0;59.0;3.0;162167;2014-11-08 14:05:39:822
-0.4597;3.6774;9.5001;-0.3787;5.6982;7.7673;0.5319;0.7373;-1.1786;-22.0;-22.8;-20.5;113.1;-36.23;2.79;0.0;32.192;;;;;;86.0;59.0;3.0;162667;2014-11-08 14:05:40:322
-0.4597;3.6774;9.5001;-0.3787;5.6982;7.7673;0.5319;0.7373;-1.1786;-32.0;-18.2;-5.2;111.2;-36.23;2.79;0.0;30.779;;;;;;86.0;59.0;3.0;163167;2014-11-08 14:05:40:822
-0.4597;3.6774;9.5001;-0.3787;5.6982;7.7673;0.5319;0.7373;-1.1786;-29.7;-19.9;11.2;126.2;-36.23;2.79;0.0;29.42;;;;;;86.0;59.0;3.0;163667;2014-11-08 14:05:41:322
-0.4597;3.6774;9.5001;-0.3787;5.6982;7.7673;0.5319;0.7373;-1.1786;-24.4;-20.8;21.8;143.21;-36.23;2.79;0.0;29.191;;;;;;86.0;59.0;3.0;164167;2014-11-08 14:05:41:822
-0.4597;3.6774;9.5001;-0.3787;5.6982;7.7673;0.5319;0.7373;-1.1786;-21.4;-21.5;25.1;148.55;-36.23;2.79;0.0;29.669;;;;;;86.0;59.0;3.0;164667;2014-11-08 14:05:42:322
-0.4597;3.6774;9.5001;-0.3787;5.6982;7.7673;0.5319;0.7373;-1.1786;-23.4;-21.5;23.4;144.97;-36.23;2.79;0.0;31.033;;;;;;86.0;59.0;3.0;165167;2014-11-08 14:05:42:822
-0.4597;3.6774;9.5001;-0.3787;5.6982;7.7673;0.5319;0.7373;-1.1786;-25.2;-22.9;13.5;139.73;-36.23;2.79;0.0;28.897;;;;;;86.0;59.0;3.0;165667;2014-11-08 14:05:43:322
-0.4597;3.6774;9.5001;-0.3787;5.6982;7.7673;0.5319;0.7373;-1.1786;-29.2;-22.9;0.9;124.64;-36.23;2.79;0.0;29.978;;;;;;86.0;59.0;3.0;166167;2014-11-08 14:05:43:822
-0.4597;3.6774;9.5001;-0.3787;5.6982;7.7673;0.5319;0.7373;-1.1786;-27.3;-23.7;-15.2;112.16;-36.23;2.79;0.0;28.566;;;;;;86.0;59.0;3.0;166667;2014-11-08 14:05:44:322
-0.4597;3.6774;9.5001;-0.3787;5.6982;7.7673;0.5319;0.7373;-1.1786;-21.3;-22.0;-24.0;100.69;-36.23;2.79;0.0;28.911;;;;;;86.0;59.0;3.0;167167;2014-11-08 14:05:44:822
-0.4597;3.6774;9.5001;-0.3787;5.6982;7.7673;0.5319;0.7373;-1.1786;-10.7;-22.1;-26.0;103.32;-36.23;2.79;0.0;28.236;;;;;;86.0;59.0;3.0;167667;2014-11-08 14:05:45:322
-0.4597;3.6774;9.5001;-0.3787;5.6982;7.7673;0.5319;0.7373;-1.1786;-13.6;-20.2;-27.6;90.02;-36.23;2.79;0.0;28.539;;;;;;86.0;59.0;3.0;168167;2014-11-08 14:05:45:822
-0.4597;3.6774;9.5001;-0.3787;5.6982;7.7673;0.5319;0.7373;-1.1786;-7.6;-19.1;-29.8;77.16;-36.23;2.79;0.0;27.306;;;;;;86.0;59.0;3.0;168667;2014-11-08 14:05:46:322
-0.4597;3.6774;9.5001;-0.3787;5.6982;7.7673;0.5319;0.7373;-1.1786;-6.5;-19.0;-30.3;73.47;-36.23;2.79;0.0;28.617;;;;;;86.0;59.0;3.0;169167;2014-11-08 14:05:46:822
-0.4597;3.6774;9.5001;-0.3787;5.6982;7.7673;0.5319;0.7373;-1.1786;-21.6;-17.2;-27.6;84.65;-36.23;2.79;0.0;27.939;;;;;;86.0;59.0;3.0;169667;2014-11-08 14:05:47:322
-0.4597;3.6774;9.5001;-0.3787;5.6982;7.7673;0.5319;0.7373;-1.1786;-32.2;-18.8;-2.5;115.17;-36.23;2.79;0.0;28.282;;;;;;86.0;59.0;3.0;170167;2014-11-08 14:05:47:822
-0.4597;3.6774;9.5001;-0.3787;5.6982;7.7673;0.5319;0.7373;-1.1786;-28.5;-21.2;15.1;134.32;-36.23;2.79;0.0;27.51;;;;;;86.0;59.0;3.0;170667;2014-11-08 14:05:48:322
-0.4597;3.6774;9.5001;-0.3787;5.6982;7.7673;0.5319;0.7373;-1.1786;-26.3;-21.7;20.9;141.08;-36.23;2.79;0.0;28.486;;;;;;86.0;59.0;3.0;171167;2014-11-08 14:05:48:822
-0.4597;3.6774;9.5001;-0.3787;5.6982;7.7673;0.5319;0.7373;-1.1786;-23.6;-22.4;21.9;143.92;-36.23;2.79;0.0;27.901;;;;;;86.0;59.0;3.0;171667;2014-11-08 14:05:49:322
-0.4597;3.6774;9.5001;-0.3787;5.6982;7.7673;0.5319;0.7373;-1.1786;-22.7;-23.2;21.9;145.78;-36.23;2.79;0.0;29.221;;;;;;86.0;59.0;3.0;172167;2014-11-08 14:05:49:822
-0.4597;3.6774;9.5001;-0.3787;5.6982;7.7673;0.5319;0.7373;-1.1786;-22.9;-23.0;22.9;146.32;-36.23;2.79;0.0;30.249;;;;;;86.0;59.0;3.0;172668;2014-11-08 14:05:50:323
-0.4597;3.6774;9.5001;-0.3787;5.6982;7.7673;0.5319;0.7373;-1.1786;-22.0;-22.6;24.2;148.05;-36.23;2.79;0.0;51.741;;;;;;86.0;59.0;3.0;173169;2014-11-08 14:05:50:824
-0.4597;3.6774;9.5001;-0.3787;5.6982;7.7673;0.5319;0.7373;-1.1786;-21.2;-25.7;21.9;150.06;-36.23;2.79;0.0;46.412;;;;;;86.0;59.0;3.0;173669;2014-11-08 14:05:51:324
-0.4597;3.6774;9.5001;-0.3787;5.6982;7.7673;0.5319;0.7373;-1.1786;-1.7;-37.8;-5.4;175.38;-36.23;2.79;0.4;41.084;;;;;;86.0;59.0;3.0;174170;2014-11-08 14:05:51:825
-0.4597;3.6774;9.5001;-0.3787;5.6982;7.7673;0.5319;0.7373;-1.1786;-3.5;-32.8;-18.0;174.1;-36.23;2.79;0.4;27.373;;;;;;86.0;59.0;3.0;174670;2014-11-08 14:05:52:325
-0.4597;3.6774;9.5001;-0.3787;5.6982;7.7673;0.5319;0.7373;-1.1786;-2.7;-36.0;-10.5;171.47;-36.23;2.79;0.4;27.785;;;;;;86.0;59.0;3.0;175170;2014-11-08 14:05:52:825
-0.4597;3.6774;9.5001;-0.3787;5.6982;7.7673;0.5319;0.7373;-1.1786;-4.4;-35.6;-11.3;169.09;-36.23;2.79;0.4;28.273;;;;;;86.0;59.0;3.0;175995;2014-11-08 14:05:53:650
-2.7581;3.6774;7.9678;-2.7333;3.2234;10.207;-0.0248;0.4541;-2.2392;-5.8;-34.1;-16.1;166.69;-13.76;10.07;0.4;28.027;;;;;;86.0;59.0;3.0;176496;2014-11-08 14:05:54:151
0.3065;3.9839;8.5807;-1.2163;2.7722;8.5387;1.5228;1.2117;0.0421;-7.8;-33.7;-12.2;159.41;-18.97;15.58;0.4;64.177;;;;;;84.2;59.0;3.0;176997;2014-11-08 14:05:54:652
1.5323;4.75;8.5807;0.8408;4.5792;8.2974;0.6915;0.1708;0.2833;-7.0;-36.4;-8.1;167.69;-25.24;-4.78;0.4;27.8;;;;;;84.2;59.0;3.0;177498;2014-11-08 14:05:55:153
2.4516;3.8307;9.0404;1.7273;4.288;8.5808;0.7243;-0.4573;0.4596;-9.6;-36.0;-9.6;162.31;-29.02;-9.24;0.4;27.375;;;;;;84.2;59.0;3.0;178000;2014-11-08 14:05:55:655
0.9194;3.6774;8.8872;2.9518;4.1423;8.2042;-2.0324;-0.4649;0.683;-12.5;-36.4;-10.2;163.25;-23.97;-18.18;0.4;33.448;;;;;;84.2;59.0;3.0;178520;2014-11-08 14:05:56:175
0.1532;4.4436;8.5807;0.4938;3.8467;8.6938;-0.3406;0.5969;-0.113;-13.0;-34.9;-10.9;155.95;-23.17;-3.55;0.4;27.981;;;;;;84.2;59.0;3.0;179030;2014-11-08 14:05:56:685
1.0726;6.1291;7.3549;0.1464;4.6149;8.5048;0.9262;1.5141;-1.1499;-10.9;-35.8;-2.6;156.18;-27.01;-1.37;0.4;27.523;;;;;;84.2;59.0;3.0;179531;2014-11-08 14:05:57:186